Timestamp_ms,AccX_Filt,AccY_Filt,AccZ_Filt,GyrX_Filt,GyrY_Filt,GyrZ_Filt,MagX_Filt,MagY_Filt,MagZ_Filt,GyrX_rad,GyrY_rad,GyrZ_rad,FreeAcc_E,FreeAcc_N,FreeAcc_U
5233,-0.0978,-0.0337,9.7647,-0.0687,-3.2653,0.0085,3.105,-60.345,-63.315,-0.0011990411961201044,-0.05699023606537084,0.000148352986419518,-0.08748152963459507,-0.0285169834509878,-0.035185593999871756
5240,-0.0432,-0.0075,9.7717,0.2051,-2.2384,0.3129,3.8762,-63.6843,-65.3587,0.00357967029584037,-0.03906744997664107,0.005461135229490257,-0.02033277015715336,-0.0014973064840005672,-0.02822289874912265
5248,-0.0474,-0.0051,9.787,0.0322,-0.958,0.0281,4.1368,-64.6546,-65.8637,0.0005619960191421741,-0.016720254234105676,0.0004904375198104066,-0.01015893398734547,0.00028522215669446146,-0.012889165606196684
5256,-0.0285,-0.0113,9.7861,0.2673,-0.653,0.2071,3.6036,-64.7348,-65.9574,0.004665265090580842,-0.011397000015522973,0.0036145768808802567,-0.005119767955106835,0.0024953865697703195,-0.01385363327208644
5264,-0.0403,-0.003,9.7896,0.4459,-0.4694,0.6971,3.4495,-64.4502,-66.1479,0.0077824231346427155,-0.008192575508861382,0.012166690215652472,-0.004352447291827814,0.001757330235726943,-0.010317716187465464
5272,-0.0249,-0.0077,9.8075,0.8549,-0.4189,0.7561,3.3406,-64.1535,-66.1673,0.014920819775299523,-0.007311184236604247,0.013196434474329126,-0.004630585238677494,-0.00010391012400572894,0.00753353789233735
5280,-0.0329,0.0065,9.8075,0.7107,-0.4899,0.7449,3.2578,-64.1675,-65.9198,0.0124040549939237,-0.00855036800552022,0.013000957598105762,-0.002831429592984219,0.001434217181503124,0.007556822982342837
5288,-0.023,-0.012,9.7956,0.405,-0.4803,0.7837,3.1915,-64.1,-65.6532,0.0070685834705770355,-0.008382816397328765,0.01367814534787956,0.0004043210310003533,-0.003126408852579186,-0.0043661551642220076
5296,-0.017,0.0031,9.7953,0.4349,-0.5719,0.7857,3.1362,-63.9787,-65.3746,0.007590436916923339,-0.00998153799215557,0.013713051932919447,-0.0017678100461029956,-0.002444490350230975,-0.004685222040357928
5304,-0.0225,0.0172,9.8065,0.2916,-0.7807,0.8968,3.1185,-63.731,-65.0436,0.0050893800988154655,-0.01362578547031973,0.01565211273188515,-2.9868759281433787e-05,-0.002070885884283909,0.006540677045064669
5312,-0.0288,0.0042,9.7842,0.3098,-0.6742,0.9882,3.1012,-63.4727,-64.7157,0.005407030022678433,-0.01176700981694577,0.017247343668207963,-0.0011847796785606133,-0.0010469443880513712,-0.01575683968327901
5320,-0.0253,0.0207,9.7929,0.2482,-0.6674,0.8173,3.0842,-63.207,-64.3905,0.004331907203449926,-0.011648327427810155,0.014264575976549655,-0.0009198993804150521,-0.00038469493678091015,-0.007045491998091791
5328,-0.0223,0.0114,9.7993,0.4787,-0.5689,0.8983,3.1019,-62.8902,-64.1022,0.008354891129296856,-0.00992917811459574,0.01567829267066506,-0.0020013950696010033,0.004966396719090126,-0.0006694581047312909
5336,-0.0202,0.0127,9.7909,0.4885,-0.4695,0.7742,2.9766,-62.6506,-63.8541,0.0085259333959923,-0.008194320838113377,0.0135123390689401,-0.0007608752928076009,-0.010059377132630208,-0.009076122755296012
5344,-0.0234,0.0209,9.7835,0.5706,-0.2586,0.8084,2.777,-62.3341,-63.6386,0.009958848711879645,-0.004513421445657336,0.01410924167312216,0.009862192682769645,0.003950969098930997,-0.016455460979459602
5352,-0.0005,0.0356,9.7919,0.5947,-0.2085,0.6634,2.7315,-62.1326,-63.4034,0.010379473061610278,-0.003639011490408177,0.011578514257730382,0.018872004410018645,0.010099011248172432,-0.008058666565585071
5360,0.0076,0.0373,9.795,0.4652,-0.2563,0.7609,2.69,-61.9208,-63.1611,0.008119271680277622,-0.004473278872861466,0.013280210278424853,0.012265755596653811,0.004884403005345422,-0.004934929065203875
5368,0.0055,0.0364,9.7953,0.4501,-0.2709,0.6709,2.7182,-61.6841,-62.7971,0.007855726963226478,-0.004728096943652638,0.011709413951629957,-0.004798285029665593,-0.002348815672969909,-0.004632280535574296
5376,0.0023,0.0255,9.7912,0.4015,-0.3151,0.7258,2.6796,-61.3796,-62.5118,0.007007496946757234,-0.005499532473034132,0.012667599710974843,-0.000324920867598702,-0.00036942155989919654,-0.008766536439134498
5384,-0.0015,0.032,9.8009,0.3612,-0.2799,0.5575,2.7409,-61.0625,-62.2487,0.006304129258203519,-0.0048851765763321285,0.009730210579868387,0.004282377635802421,-0.007370774606574979,0.0009486476015929668
5392,-0.0021,0.0325,9.8006,0.3354,-0.2077,0.5173,2.7598,-60.7704,-61.9482,0.005853834311188981,-0.0036250488563922224,0.009028588220566666,-0.004010095402822189,0.006490279231707369,0.0006511424195867477
5400,0.0081,0.0424,9.8078,0.4042,-0.1204,0.3385,2.7761,-60.4798,-61.6495,0.00705462083656108,-0.0021013764194011725,0.0059079395180008055,0.0004763847118519019,0.0011515220358512984,0.007894914662095687
5408,0.014,0.0461,9.8068,0.4085,-0.0679,0.2365,2.7381,-60.1973,-61.3656,0.007129669994396836,-0.00118507856210415,0.0041277036809665895,-0.006190343803389513,-0.00521773675313102,0.006915004468366348
5416,0.0123,0.0351,9.8004,0.4057,-0.1414,0.2679,2.7087,-59.9407,-61.0574,0.007080800775340995,-0.002467895562319982,0.004675737066092809,-0.001204058110406682,-0.0026363399574944398,0.0004701448428328092
5424,0.0099,0.0359,9.802,0.4263,-0.0634,0.2106,2.6808,-59.6832,-60.7521,0.007440338601251827,-0.0011065387457644049,0.003675663404700058,0.010264011102112263,0.004716743087424002,0.0020642327221427337
5432,-0.0024,0.0245,9.8062,0.4585,-0.0008,0.177,2.6025,-59.3907,-60.4553,0.008002334620394002,-1.3962634015954637e-05,0.0030892327760299633,0.002487153547346744,0.007680088697217055,0.0062275764080048646
5440,-0.0066,0.0281,9.7985,0.4212,0.0447,0.0113,2.5292,-59.1003,-60.1607,0.007351326809400116,0.0007801621756414653,0.00019722220547535924,0.0007057805025565858,-0.004787897525122427,-0.0014586800936964295
5448,0.0057,0.0368,9.7943,0.44,-0.0138,0.0427,2.4605,-58.8121,-59.8682,0.00767944870877505,-0.00024085543677521747,0.0007452555906015787,-0.002023999197358771,-0.001212205193090063,-0.005629491693413868
5456,0.0177,0.031,9.7882,0.4668,0.0216,-0.1486,2.4424,-58.4796,-59.6089,0.00814719694830953,0.0003769911184307752,-0.002593559268463574,-0.0028236018203325677,0.0013516419799694266,-0.011735407625277361
5464,0.0203,0.0312,9.7832,0.3939,0.0947,-0.1376,2.4248,-58.1523,-59.3495,0.006874851923605664,0.0016528268016386303,-0.0024015730507441976,0.0020242722972601507,-0.01447542951449493,-0.01674010698570605
5472,0.0204,0.0259,9.791,0.3921,0.0572,-0.1516,2.4175,-57.8541,-59.0806,0.006843435997069766,0.0009983283321407565,-0.002645919146023404,0.0005333986676335351,-0.004772551777586684,-0.008945669222574892
5480,0.0241,0.0156,9.787,0.3664,0.1509,-0.1107,2.41,-57.5589,-58.8126,0.0063948863793072235,0.002633701841259443,-0.0019320794819577228,0.00020383753672114494,-0.0004874840414118872,-0.012957909010017588
5488,0.0352,0.0113,9.7812,0.3601,0.1559,-0.1524,2.4116,-57.2575,-58.5728,0.00628493063643158,0.00272096830385916,-0.0026598817800393584,-0.002887711172067497,0.0008105287852408355,-0.018730594949996515
5496,0.0233,0.0216,9.786,0.4011,0.1342,-0.1594,2.3948,-56.9772,-58.2927,0.007000515629749256,0.0023422318561763904,-0.002782054827678961,-0.0021012822841235796,0.001160398024426569,-0.013948718298621543
5504,0.0067,0.019,9.7848,0.3466,0.2596,-0.2417,2.4043,-56.6947,-57.9887,0.006049311187412347,0.0045308747381772796,-0.004218460802070294,-0.002730586093736613,-0.0007159186706805009,-0.015179666373018819
5512,-0.0034,0.0144,9.787,0.3326,0.2275,-0.1517,2.3793,-56.4146,-57.688,0.00580496509213314,0.0039706240482871,-0.002647664475275398,0.0019431157539668775,0.0002251650011100762,-0.01298901126590657
5520,-0.0051,0.0162,9.7889,0.2792,0.2489,-0.239,2.3553,-56.1206,-57.3985,0.004872959271568168,0.004344124508213886,-0.004171336912266448,-0.001272345253074295,-0.013912283538976486,-0.011095235446189733
5528,-0.009,0.0265,9.7934,0.2258,0.2521,-0.2902,2.3399,-55.8692,-57.1196,0.003940953451003196,0.004399975044277704,-0.005064945489287545,0.00799198782172099,0.005044817349143746,-0.006564571717003531
5536,-0.0076,0.0339,9.7998,0.2206,0.1812,-0.3615,2.3404,-55.5956,-56.8581,0.0038501963298994907,0.003162536604613725,-0.006309365245959501,0.00019087471963181676,-0.0003788501997072907,-0.00013842801647889758
5544,-0.0176,0.0375,9.7955,0.0943,0.2101,-0.3246,2.3065,-55.3204,-56.6016,0.0016458454846306526,0.0036669367584400863,-0.0056653387519735934,0.005362196122931034,-0.001790901002329616,-0.0044140400113725775
5552,-0.0066,0.0357,9.7925,0.2075,0.184,-0.2727,2.2739,-55.0475,-56.3463,0.0036215581978882336,0.0032114058236695662,-0.004759512870188536,0.0013032085893024666,-0.0005111718680612862,-0.007432801335969685
5560,-0.0136,0.0327,9.7976,0.1389,0.1398,-0.2038,2.2675,-54.784,-56.11,0.0024242623310201236,0.0024399702942880727,-0.0035569810155644437,0.007810969800058895,0.004554590496158849,-0.002340164383324961
5568,-0.0171,0.0296,9.7912,0.2046,0.0865,-0.1635,2.254,-54.5153,-55.8636,0.003570943649580398,0.001509709802975095,-0.002853613327010729,-0.010404798456754323,-0.0038681568383997496,-0.00874661815292832
5576,-0.0176,0.0317,9.7978,0.2005,0.1303,-0.2473,2.2408,-54.2487,-55.618,0.003499385150248631,0.0022741640153486112,-0.0043161992401819765,0.004744025615577616,0.0004762823555243276,-0.0021340712695980812
5584,-0.013,0.0296,9.8023,0.1551,0.147,-0.2467,2.2412,-53.9709,-55.3366,0.002707005669843205,0.0025656340004316645,-0.004305727264670011,-0.005889389089319825,0.0008503850824496508,0.0023515057327614386
5592,-0.0112,0.0262,9.8019,0.1146,0.185,-0.2379,2.2412,-53.6956,-55.0576,0.0020001473227855017,0.0032288591161895096,-0.00415213829049451,0.009478584972958047,0.005592721379722919,0.001935235854931605
5600,0.0005,0.0123,9.7928,0.1256,0.1991,-0.2406,2.2409,-53.4228,-54.7812,0.0021921335405048776,0.00347495054072071,-0.0041992621802983575,0.006859365497474462,-0.0027428607709459652,-0.007195049128174702
5608,0.0007,0.0243,9.797,0.1689,0.1495,-0.2266,2.256,-53.184,-54.5166,0.0029478611066184224,0.0026092672317315226,-0.003954916085019151,-0.002245926057930335,-0.0034498310271481405,-0.0029707036019317457
5616,0.0021,0.021,9.7998,0.1747,0.198,-0.1531,2.2701,-52.9462,-54.254,0.0030490902032340936,0.0034557519189487725,-0.0026720990848033187,0.001368872678405844,0.008563611811362776,-0.000181111839857806
5624,0.0003,0.0222,9.8069,0.1365,0.1187,-0.1377,2.2743,-52.6945,-54.0084,0.00238237442897226,0.0020717058221172693,-0.0024033183799961914,0.0004262369005980282,-0.00610892793373476,0.006923219813725012
5632,-0.0037,0.0319,9.8156,0.1082,0.0894,-0.0903,2.2781,-52.4445,-53.7641,0.0018884462506578647,0.0015603243512829306,-0.0015760323145508797,0.007681923793519945,-0.007649830068902994,0.01564654661865461
5640,-0.0013,0.0265,9.8162,0.0541,0.1049,-0.0587,2.296,-52.2049,-53.5123,0.0009442231253289323,0.0018308503853420516,-0.0010245082709206715,0.000627619103686412,-0.0006991423476740873,0.016235811006897194
5648,0.0049,0.0299,9.8181,0.0703,0.1387,-0.0394,2.2872,-51.9696,-53.2651,0.0012269664641520136,0.0024207716725161347,-0.0006876597252857658,-0.00758900279701338,-0.0031792743700887202,0.01814330356055649
5656,0.0146,0.0293,9.8321,0.0289,0.1439,-0.0969,2.2701,-51.7383,-53.0166,0.0005044001538263612,0.0025115287936198403,-0.0016912240451825054,-0.005279997331437999,0.00993514090060139,0.03214806004280213
5664,0.0079,0.0219,9.8402,0.0462,0.1082,-0.0273,2.2506,-51.4971,-52.7724,0.0008063421144213802,0.0018884462506578647,-0.000476474885794452,0.0035715536983155533,-0.0007800650828481415,0.040226861993712504
5672,-0.0086,0.027,9.8353,0.0222,0.1066,-0.0149,2.2316,-51.2575,-52.5298,0.0003874630939427412,0.0018605209826259553,-0.0002600540585471551,0.0021417928580154625,-0.000694989327755409,0.035340562467228054
5680,-0.0263,0.0303,9.8235,-0.0683,0.0727,-0.0004,2.189,-51.0034,-52.2939,-0.0011920598791121271,0.0012688543661998775,-6.981317007977318e-06,2.3569130079151136e-05,0.00010656795451398947,0.02358193420748833
5688,-0.5142,0.0324,9.806,-0.1088,-0.0109,-0.7282,2.1738,-50.7515,-52.0776,-0.0018989182261698304,-0.0001902408884673819,-0.012709487613022707,-0.47224499363618905,0.001739166008267717,0.00816338777485548
5696,-0.2925,0.0288,9.7838,-0.1043,0.0709,-1.6091,2.146,-50.5015,-51.849,-0.0018203784098300858,0.0012374384396639797,-0.028084092993840758,-0.23488010304063944,-0.0012098895485605592,-0.014604862175321642
5704,-0.1729,0.0429,9.7751,-0.0247,0.0602,-2.0869,2.1316,-50.2863,-51.5964,-0.0004310963252425994,0.0010506882097005862,-0.036423276159869664,-0.0997126014070292,0.011366517953528695,-0.023791991298965698
5712,-0.2419,0.0328,9.7941,-0.11,-0.0146,-2.433,2.1173,-50.072,-51.3457,-0.0019198621771937625,-0.0002548180707911721,-0.04246386070102204,-0.152898813802177,0.0012759634012139646,-0.004051521947694425
5720,-0.3367,0.0374,9.7959,-0.1082,-0.0296,-2.8737,2.1009,-49.8537,-51.1238,-0.0018884462506578647,-0.0005166174585903216,-0.05015552671456105,-0.23203426562168122,0.005741544105034067,-0.0009924178900302394
5728,-0.3519,0.0288,9.797,-0.0877,-0.0117,-3.3538,2.0848,-49.6365,-50.903,-0.001530653753999027,-0.00020420352248333657,-0.05853485245338583,-0.2315469019463482,-0.0023996568792528255,0.0006250986274292103
5736,-0.3633,0.0228,9.7747,-0.0815,0.0134,-3.8259,2.0618,-49.4155,-50.6832,-0.0014224433403753787,0.00023387411976724017,-0.06677455185205106,-0.2275579495818619,-0.007487022882807735,-0.021174500786385053
5744,-0.4174,0.0179,9.7796,-0.0836,-0.0484,-4.4191,2.0394,-49.1958,-50.4644,-0.0014590952546672594,-0.0008447393579652555,-0.07712784497488143,-0.2660066062558092,-0.01129630359094441,-0.015101829402953015
5752,-0.4459,0.0152,9.7704,-0.0696,-0.1074,-4.8009,2.0174,-48.9772,-50.2467,-0.0012147491593880533,-0.0018744836166419098,-0.08379151205899578,-0.27916392285014346,-0.012795480687731033,-0.02341175103232196
5760,-0.4211,0.0187,9.7762,0.0108,-0.1103,-5.2382,1.9936,-48.7508,-50.0391,0.0001884955592153876,-0.0019250981649497454,-0.09142383687796697,-0.2387594064735004,-0.008505078034462496,-0.017634082213648483
5768,-0.4578,0.0192,9.7701,0.0261,-0.1344,-5.4175,1.9703,-48.5258,-49.8323,0.00045553093477052005,-0.0023457225146803788,-0.0945532122267928,-0.26009987144043223,-0.007124718508982721,-0.022623010987926406
5776,-0.481,0.0132,9.7673,-0.0263,-0.0262,-5.6666,1.9497,-48.3111,-49.6174,-0.00045902159327450867,-0.00045727626402251436,-0.09890082739351068,-0.2677785897058044,-0.011900772010773891,-0.02452878227751576
5784,-0.4902,0.0219,9.7797,-0.0041,-0.0541,-5.7307,1.9295,-48.0976,-49.4037,-7.155849933176751e-05,-0.0009442231253289323,-0.10001958344403904,-0.26106505477856495,-0.0026210816171589536,-0.011478870273375463
5792,-0.4612,0.0298,9.8074,0.0386,0.0639,-5.8642,1.9183,-47.8981,-49.1781,0.0006736970912698113,0.0011152653920243766,-0.10234959799545147,-0.21557309528348434,0.005021812944443123,0.01591520246505773
5800,-0.4723,-0.0004,9.8111,-0.0277,0.0321,-5.9142,1.9093,-47.6761,-48.9519,-0.00048345620280242926,0.0005602506898901797,-0.10322226262144864,-0.211108080231933,-0.022969006924518875,0.020165806297859135
5808,-0.4572,0.006,9.843,-0.0589,-0.0276,-5.8817,1.8691,-47.4598,-48.7271,-0.00102799892942466,-0.00048171087355043494,-0.10265503061455049,-0.17945090323316534,-0.014960631562155362,0.051968858701901155
5816,-0.4769,0.0154,9.8296,-0.0941,0.0356,-6.0004,1.8566,-47.251,-48.5182,-0.0016423548261266642,0.0006213372137099813,-0.10472673643666774,-0.1836503413244093,-0.004427961285494798,0.03945932840266586
5824,-0.4714,0.013,9.8239,-0.1705,0.112,-5.8813,1.8442,-47.0433,-48.3103,-0.0029757863746503323,0.001954768762233649,-0.10264804929754251,-0.162459731597541,-0.005644143609977906,0.03386867663241411
5832,-0.5212,0.0121,9.81,-0.1901,0.1236,-5.9198,1.8381,-46.8348,-48.0874,-0.0033178709080412204,0.0021572269554649913,-0.10332000105956032,-0.19679255425474626,-0.004910058910452941,0.02187071956821285
5840,-0.5397,0.0123,9.8029,-0.1421,-0.0283,-5.815,1.8319,-46.6215,-47.8799,-0.0024801128670839424,-0.0004939281783143953,-0.10149089600347028,-0.1998444988799782,-0.0035485235292636664,0.015718281116678057
5848,-0.5379,0.0284,9.8134,-0.187,-0.2563,-5.7816,1.8238,-46.3861,-47.6617,-0.0032637657012293962,-0.004473278872861466,-0.10090795603330416,-0.18214337140519385,0.012201919200658138,0.02647634889643058
5856,-0.5749,0.0234,9.8269,-0.1952,-0.3167,-5.5413,1.8119,-46.1778,-47.4487,-0.0034068826998929313,-0.005527457741066041,-0.09671392984076178,-0.20337184499993044,0.007777106829070105,0.04162591187404807
5864,-0.5701,0.007,9.8538,-0.1683,-0.3771,-5.2261,1.8001,-45.9708,-47.2371,-0.0029373891311064567,-0.006581636609270617,-0.09121265203847566,-0.18251490250076208,-0.007399859917754711,0.06859012232438033
5872,-0.5681,0.0104,9.858,-0.0491,-0.3655,-4.9167,1.7885,-45.7708,-47.0135,-0.0008569566627292158,-0.006379178416039274,-0.0858126033328052,-0.16501719714419696,-0.0032242471342192255,0.07298175319275657
5880,-0.5367,0.0125,9.8518,0.0996,-0.1194,-4.5996,1.777,-45.5719,-46.7914,0.0017383479349863521,-0.0020839231268812296,-0.08027816427473118,-0.11825416241310979,-0.0011665661373181043,0.06570732244756172
5888,-0.5196,0.0259,9.8553,0.2097,0.14,-4.3631,1.7601,-45.3594,-46.5764,0.003659955441432109,0.0024434609527920616,-0.0761504605937646,-0.08495180708079057,0.010131811465567976,0.06865105254360948
5896,-0.4942,0.0311,9.8704,0.2642,0.1157,-4.0836,1.7435,-45.1483,-46.3629,0.004611159883769018,0.0020193459445574393,-0.07127226533444043,-0.043347628522050125,0.010935908568903693,0.08271209734479967
5904,-0.4734,0.0572,9.8762,0.4098,-0.0918,-3.8164,1.7272,-44.9388,-46.1507,0.0071523592746727625,-0.0016022122533307947,-0.06660874557311158,-0.013891157686043614,0.02279172157243478,0.08766875523072493
5912,-0.4847,0.0818,9.9075,0.3221,-0.1994,-3.5876,1.7093,-44.7467,-45.9417,0.005621705520673735,-0.003480186528476693,-0.06261543224454857,-0.016561775594635644,0.033001304017827006,0.11961784553831833
5920,-0.4635,0.0681,9.9007,0.3023,-0.1421,-3.6063,1.6917,-44.5556,-45.734,0.005276130328778859,-0.0024801128670839424,-0.06294180881467151,0.0005741108641459587,0.003297750075358086,0.11177679052757661
5928,-0.4497,0.0743,9.8973,0.262,-0.2262,-3.5869,1.6848,-44.3813,-45.5258,0.004572762640225144,-0.003947934768011174,-0.0626032149397846,0.0007377192449321606,0.0005319033190960531,0.10778971531234838
5936,-0.445,0.0686,9.9015,0.2609,-0.3625,-3.4695,1.678,-44.2077,-45.319,0.004553564018453206,-0.006326818538479445,-0.060554198397943265,-0.006394242332592796,0.005540525684646982,0.1117284883233225
5944,-0.3884,0.0593,9.9057,0.2971,-0.1941,-3.1893,1.6558,-44.0194,-45.1271,0.005185373207675152,-0.0033876840781209934,-0.05566378583385515,0.034135173196510306,-0.0035347992233318156,0.1134295697879093
5952,-0.3686,0.0167,9.8731,0.5159,0.1297,-3.0787,1.6509,-43.8322,-44.9244,0.009004153611038746,0.0022636920398366456,-0.05373345168114942,0.04012385770113081,-0.03628785681186855,0.07984421575012313
5960,-0.1753,-0.0086,9.8878,0.5597,0.2579,-2.6928,1.6377,-43.6593,-44.723,0.009768607823412262,0.004501204140893376,-0.04699822609770331,0.21846008154803903,-0.06182646114633199,0.08675101190841872
5968,-0.0505,-0.0648,9.8656,0.5989,0.3939,-2.3718,1.6329,-43.4706,-44.531,0.010452776890194039,0.006874851923605664,-0.04139571919880151,0.3267811723559678,-0.1159030881207099,0.05984752364648571
5976,-0.0127,-0.0642,9.8847,0.4016,0.5372,-1.9716,1.628,-43.283,-44.3402,0.007009242276009227,0.009375908741713538,-0.034410911532320204,0.35095353756410774,-0.111934851855331,0.078050375626324
5984,-0.005,-0.075,9.88,0.325,0.6316,-1.6101,1.6102,-43.1095,-44.1357,0.005672320068981571,0.011023499555596186,-0.0281015462863607,0.34416580311885564,-0.1182070650352199,0.07358227745833545
5992,0.0235,-0.0578,9.8822,0.3931,0.4604,-1.2245,1.5895,-42.9143,-43.9471,0.006860889289589709,0.008035495876181893,-0.021371556690670562,0.3584534670587122,-0.09801245290713419,0.07540756632498002
6000,0.0314,-0.0542,9.8847,0.2555,0.5154,-0.7838,1.577,-42.7378,-43.7595,0.0044593162388455124,0.008995426964778773,-0.013679890677131556,0.3519108953501133,-0.09100923760938516,0.07821308387319803
6008,0.1397,-0.04,9.8924,0.236,0.568,-0.341,1.5647,-42.5449,-43.5603,0.004118977034706617,0.009913470151327791,-0.0059515727493006645,0.445876506129006,-0.07676437559038775,0.08311667551903312
6016,0.1052,-0.075,9.8091,0.2253,0.6024,-0.0777,1.5525,-42.3532,-43.3624,0.003932226804743225,0.010513863414013842,-0.0013561208287995942,0.3937729164486223,-0.10697436437435097,0.0014608210020536916
6024,-0.0864,-0.1061,9.6787,0.2151,0.5258,0.2622,1.5358,-42.1813,-43.1688,0.003754203221039803,0.009176941206986186,0.0045762532987291315,0.18567477180727196,-0.12531918500784225,-0.12292524359849466
6032,0.0268,-0.0309,9.6477,0.7921,0.4339,0.5552,1.5194,-42.0102,-42.9764,0.013824753005047085,0.007572983624403396,0.009690068007072518,0.2848703123858172,-0.05084543251298407,-0.1565539361121644
6040,0.1674,-0.0886,9.6779,0.7465,1.2023,1.0967,1.5001,-41.8415,-42.7897,0.01302888286613767,0.020984093596727822,0.01914102590662181,0.41165431415607506,-0.10860632071697536,-0.12961394138077864
6048,0.148,-0.0748,9.738,0.9348,1.809,1.0011,1.4811,-41.6737,-42.6041,0.016315337847642993,0.031573006168577424,0.017472491141715236,0.3813852478617551,-0.09218400776672839,-0.06849495497096925
6056,0.033,-0.1069,9.7838,0.6802,1.685,0.7096,1.4624,-41.5066,-42.4196,0.01187172957206543,0.029408797896104455,0.012384856372151762,0.2549532072033727,-0.11645846330301561,-0.019575912136438944
6064,0.0054,-0.1797,9.7519,0.5274,1.2544,1.079,1.4514,-41.3448,-42.2213,0.009204866475018093,0.02189341013701687,0.018832102629018816,0.21491305120261744,-0.17938814450079538,-0.05046118352076512
6072,0.0092,-0.1294,9.7558,0.5627,1.288,1.1202,1.4404,-41.1837,-42.0244,0.009820967700972093,0.022479840765686966,0.01955117828084048,0.20812296057467727,-0.12207260148257511,-0.04632142454710042
6080,0.0399,-0.2009,9.793,0.6391,0.5734,1.3996,1.4252,-41.0204,-41.842,0.01115439924949576,0.010007717930935486,0.024427628210912634,0.22680502204247444,-0.18513503314480523,-0.009234640668854155
6088,0.0167,-0.2433,9.7247,0.8401,0.6902,1.6935,1.4103,-40.8579,-41.6606,0.014662511046004361,0.012046262497264863,0.02955715088252397,0.19208723927166615,-0.2166973261377316,-0.07655366491110094
6096,0.1214,-0.2152,9.8114,0.8377,1.1112,1.7958,1.4026,-40.6719,-41.4731,0.014620623143956499,0.01939409864816099,0.03134262270731417,0.28722758702049184,-0.1831505090645336,0.008597002848256707
6104,0.1374,-0.2294,9.8356,0.814,1.3538,1.947,1.3993,-40.4998,-41.2854,0.01420698011123384,0.023628267413499233,0.0339815605363296,0.2920820789644442,-0.19011016913980272,0.033060391492437446
6112,0.1418,-0.1621,9.8293,0.8448,1.5084,1.8942,1.3973,-40.333,-41.0975,0.014744541520848095,0.026326546437082467,0.03306002669127659,0.28523012271417075,-0.1180984514338347,0.026811215896302087
6120,0.1043,-0.1226,9.839,1.0608,1.4296,2.2064,1.3856,-40.1781,-40.9135,0.018514452705155848,0.024951226986510935,0.038508944616002884,0.23558874478198888,-0.07461003217149557,0.037213098049234006
6128,0.0249,-0.0795,9.8214,0.9181,1.7675,2.1157,1.374,-40.024,-40.7308,0.01602386786255994,0.030848694528999777,0.03692593098444403,0.14376863292462894,-0.02845660438162353,0.020659805830463895
6136,0.0482,-0.0438,9.7896,1.0536,1.5067,1.9408,1.3721,-39.8664,-40.5423,0.018388788999012258,0.02629687583979856,0.033873350122705946,0.15372631235531276,0.004553147656346453,-0.011391450786478075
6144,0.0474,-0.0328,9.8232,0.8551,1.316,1.971,1.3769,-39.7028,-40.355,0.014924310433803512,0.022968532956245378,0.034400439556808236,0.1396517171010426,0.012937842596528406,0.022367884076611944
6152,0.0107,-0.0425,9.8121,1.0254,1.2349,2.4105,1.3641,-39.5279,-40.1744,0.017896606149949857,0.021553070932877977,0.04207116161932331,0.08867644042264669,0.001822045091742693,0.011796997444740498
6160,0.0076,-0.0435,9.8062,1.1909,0.7307,2.5801,1.3608,-39.354,-40.0016,0.02078512606200047,0.012753120844322566,0.045031240030705695,0.07081275747381895,-0.0009540345092350554,0.0060437023907393694
6168,0.0184,-0.0504,9.8013,1.1918,0.9019,3.2144,1.3575,-39.1813,-39.8299,0.02080083402526842,0.015741124523736858,0.056101863476105726,0.06708521566258609,-0.008163130074241146,0.0012138711052980256
6176,0.0187,-0.0301,9.7832,1.006,0.6656,3.1382,1.362,-39.0188,-39.6538,0.017558012275062956,0.011616911501274257,0.05477192258608605,0.053124384585682125,0.007920545371882777,-0.016883267346576858
6184,0.0057,-0.0191,9.7531,1.1029,0.6423,3.0226,1.3664,-38.8572,-39.4788,0.01924923632024546,0.011210249785559578,0.05275432197078061,0.026952430679982823,0.010824985223480889,-0.04692288064042138
6192,0.0035,-0.0301,9.7483,1.009,0.412,3.2295,1.3617,-38.6925,-39.3023,0.01761037215262278,0.0071907565182166375,0.05636540819315687,0.009524666659291206,-0.001440050484863411,-0.05165766106977365
6200,0.0052,-0.045,9.7494,0.9085,0.4612,3.5766,1.3569,-38.5289,-39.1269,0.015856316254368483,0.008049458510197848,0.06242344602682919,0.0029234189180438195,-0.004661169601640921,-0.05049631380551922
6208,-0.0243,-0.0358,9.7239,0.8711,0.2521,3.5672,1.3521,-38.3661,-38.9525,0.015203563114122605,0.004399975044277704,0.062259385077141724,-0.010789296086187606,0.0008559908761185772,-0.07600975944702171
6216,-0.0168,-0.0037,9.7168,0.6247,0.6736,3.6409,1.3524,-38.2157,-38.7767,0.010903071837208577,0.011756537841433804,0.06354569273586154,-0.0005910122015019132,0.01646150094162173,-0.08319873416712831
6224,-0.0424,0.0157,9.7318,0.6823,0.418,3.5381,1.3527,-38.066,-38.602,0.011908381486357311,0.0072954762733362976,0.06175149426481137,-0.016292854476317134,0.022624166832408102,-0.06813490743073736
6232,-0.0445,0.0246,9.7968,0.6948,0.2908,3.4637,1.3554,-37.9045,-38.4347,0.012126547642856601,0.00507541746479951,0.06045296930132759,-0.0099325689396433,0.017019104972866277,-0.00308786687661744
6240,-0.0688,0.0341,9.7937,0.7227,0.1879,3.3313,1.3418,-37.7515,-38.2683,0.01261349450416302,0.0032794736644973454,0.0581421533716871,-0.021572182531839946,0.01612797208379972,-0.006036018574642199
6248,-0.094,0.0536,9.8032,0.6721,0.0549,3.1966,1.3284,-37.5992,-38.0894,0.01173035790265389,0.0009581857593448868,0.05579119486925074,-0.034029689712801355,0.025371567267368642,0.0037052925815981297
6256,-0.0758,0.0498,9.8018,0.6424,-0.0697,3.0332,1.3311,-37.4501,-37.919,0.011211995114811572,-0.0012164944886400477,0.052939326871492005,-0.006651028361022753,0.007866854066030464,0.0022141782573203983
6264,-0.1053,0.0437,9.7905,0.7099,0.0325,2.7836,1.3325,-37.297,-37.7484,0.012390092359907744,0.0005672320068981572,0.048582985058514154,-0.020645672506897122,0.00021994094538434588,-0.008857996237992438
6272,-0.1029,0.0399,9.803,0.8945,0.0662,2.7076,1.3289,-37.1434,-37.5838,0.015611970159089278,0.001155407964820246,0.047256534826998466,-0.0027451951523010253,-0.0018264912443559933,0.003620685636166243
6280,-0.1025,0.0625,9.8162,0.6737,-0.0562,2.6455,1.3254,-36.9907,-37.4202,0.011758283170685798,-0.0009808750396208131,0.046172685361509994,-0.0005890900226379215,0.0041149923448074565,0.016933210520020836
6288,-0.1121,0.0633,9.8167,0.4892,-0.2532,2.6075,1.3147,-36.8364,-37.2623,0.00853815070075626,-0.004419173666049642,0.04550946024575214,0.003538261775408704,-0.0026330975154239956,0.01754311105895212
6296,-0.1546,0.0664,9.8281,0.3422,-0.0897,2.3152,1.3112,-36.6818,-37.103,0.005972516700324596,-0.0015655603390389136,0.040407862842172716,-0.02322020966402196,-3.0213488726763334e-05,0.029512732122089602
6304,-0.1916,0.0614,9.8344,0.2255,-0.0853,2.041,1.3112,-36.5399,-36.9446,0.003935717463247213,-0.001488765851951163,0.03562217003320427,-0.04463145609312007,-0.003845450245644651,0.036355886487607236
6312,-0.2006,0.0591,9.8291,0.3593,0.0149,2.1068,1.3112,-36.3834,-36.7848,0.006270968002415626,0.0002600540585471551,0.03677059668101653,-0.038104234618605765,-0.004821659829831215,0.031249401724107173
6320,-0.261,0.022,9.8215,0.3779,-0.4492,2.1404,1.3111,-36.2278,-36.626,0.006595599243286571,-0.007840018999958528,0.03735702730968663,-0.08508804935257558,-0.03584887637690931,0.024558113824758365
6328,-0.247,0.0381,9.7997,0.225,-0.5971,1.9805,1.3122,-36.0835,-36.4692,0.003926990816987242,-0.01042136096365814,0.034566245835747696,-0.05705495072193812,-0.01592501236409969,0.0027073722813586443
6336,-0.2306,0.0768,9.7945,0.1988,-0.4185,1.9849,1.3132,-35.94,-36.3134,0.003469714552964727,-0.007304202919596269,0.034643040322835446,-0.027348036708617737,0.014669394094509357,-0.0025339120890528477
6344,-0.2513,0.0754,9.7939,0.2298,-0.6664,1.9785,1.3084,-35.8006,-36.1619,0.00401076662108297,-0.011630874135290212,0.03453133925070781,-0.033910761308619156,0.008850235249811059,-0.002649042031642068
6352,-0.291,0.0581,9.7806,0.2114,-0.5088,2.3963,1.3036,-35.6619,-36.0112,0.0036896260387160127,-0.00888023523414715,0.04182332486554012,-0.05919393622082832,-0.006725809087225403,-0.015080796889185066
6360,-0.2645,0.0817,9.7777,0.1591,-0.5394,2.4172,1.2989,-35.5239,-35.8614,0.0027768188399229783,-0.009414305985257413,0.04218809867920693,-0.019426371674980472,0.009259294023622619,-0.018405584386679052
6368,-0.2533,0.0825,9.786,0.3145,-0.5579,2.5332,1.2986,-35.382,-35.7046,0.005489060497522166,-0.009737191896876364,0.04421268061152035,0.0010355698682064198,-0.0027732971073417875,-0.010375166717665252
6376,-0.2687,0.0742,9.8017,0.0604,-0.3171,2.6068,1.2984,-35.241,-35.5488,0.001054178868204575,-0.005534439058074019,0.045497242940988177,-0.002182702442552376,-0.0015371262327490665,0.005662705449998029
6384,-0.0771,0.0744,9.8696,-0.2386,-0.5054,2.7785,1.3069,-35.1017,-35.3928,-0.004164355595258471,-0.00882089403957934,0.04849397326666245,0.17468180463800018,-0.002581535492922138,0.06863534298450347
6392,-0.0254,0.111,9.8674,-0.1325,-0.3495,2.6093,1.3032,-34.9621,-35.2443,-0.0023125612588924867,-0.006099925735720182,0.045540876172288046,0.210415306212245,0.031562999554679526,0.06576292518580118
6400,-0.0643,0.1245,9.8621,-0.1724,-0.4137,2.5223,1.2994,-34.8231,-35.0966,-0.0030089476304382243,-0.007220427115500541,0.044022439723052975,0.15562072428545007,0.04151698878396472,0.0617802490126067
6408,-0.0981,0.1486,9.8628,-0.0506,-0.5338,2.4977,1.3098,-34.6795,-34.9476,-0.0008831366015091308,-0.009316567547145733,0.04359308872706237,0.1073095270068726,0.058342326457273434,0.06365095937387188
6416,-0.11,0.1631,9.8803,0.0046,-0.3153,2.4475,1.3071,-34.5356,-34.8059,8.028514559173915e-05,-0.005503023131538122,0.04271693344256121,0.08277037463347606,0.06314138848710711,0.0817099699466457
6424,-0.1162,0.1576,9.8661,0.0467,-0.2877,2.1915,1.3065,-34.3967,-34.6532,0.0008150687606813518,-0.005021312257987686,0.038248890557455735,0.0632446466808225,0.048179468992545944,0.06772254694231883
6432,-0.0485,0.1694,9.83,0.255,-0.5839,2.152,1.2974,-34.264,-34.5035,0.00445058959258554,-0.01019097750239489,0.037559485502917975,0.11519873086370605,0.053133003157655415,0.03076063925792205
6440,-0.1016,0.1792,9.8128,0.3395,-0.6059,2.1383,1.2883,-34.1318,-34.3547,0.005925392810520749,-0.010574949937833642,0.03732037539539475,0.050009998749115686,0.0516276174379429,0.014698804810199917
6448,-0.0507,0.1881,9.8123,0.3083,-0.6083,2.2371,1.2825,-34.0077,-34.2047,0.005380850083898519,-0.010616837839881505,0.039044760696365144,0.08656351210478737,0.05184573837326503,0.013715003391151726
6456,0.0249,0.2102,9.7549,0.3638,-0.7092,1.9423,1.2872,-33.8768,-34.0555,0.006349507818755371,-0.012377875055143785,0.03389953006148586,0.14624276108317738,0.06745162442137387,-0.044132975834815014
6464,0.0104,0.2034,9.7476,0.2302,-0.747,1.9564,1.2845,-33.7497,-33.9114,0.004017747938090946,-0.013037609512397642,0.03414562148601706,0.11639956234267984,0.0539560750680794,-0.05111671195876433
6472,0.0178,0.1826,9.7291,0.2704,-0.8339,2.0099,1.2818,-33.6232,-33.7681,0.0047193702973926666,-0.014554300632380713,0.03507937263583403,0.10732379481744858,0.028994038636435224,-0.06980537919258545
6480,-0.1063,0.1807,9.6883,0.3569,-0.6529,1.9704,1.2863,-33.491,-33.6194,0.006229080100367762,-0.011395254686270978,0.03438996758129627,-0.009999793261108494,0.014332140159442307,-0.10944771110061247
6488,-0.1161,0.1648,9.6577,0.4236,-0.8639,1.7939,1.2907,-33.3596,-33.4715,0.00739321471144798,-0.015077899407979012,0.03130946145152628,-0.005915991806596079,-0.0008329627907266771,-0.1401981465863429
6496,-0.0561,0.1919,9.6332,0.4288,-0.7856,1.6172,1.292,-33.2319,-33.3287,0.007483971832551685,-0.013711306603667452,0.028225464663252296,0.03893806029137939,0.01915118222216892,-0.1648231920903367
6504,-0.1649,0.1559,9.5938,0.4257,-0.7134,1.5895,1.2933,-33.1047,-33.1866,0.007429866625739861,-0.012451178883727548,0.027742008460449868,-0.056336697708965974,-0.013141428378996874,-0.20369087933535823
6512,-0.1258,0.161,9.6246,0.428,-0.7111,1.355,1.2944,-32.9782,-33.0454,0.00747000919853573,-0.012411036310931677,0.023649211364523165,-0.004163243096630664,-0.0022232436326440684,-0.17323265448911762
6520,-0.1556,0.158,9.5723,0.4783,-0.7222,1.2561,1.2946,-32.8554,-32.9019,0.008347909812288879,-0.012604767857903047,0.021923080734300774,-0.020418258194304865,-0.00307042153041624,-0.22515397944990845
6528,-0.2071,0.1493,9.5013,0.4943,-0.6954,0.9536,1.2947,-32.7331,-32.7593,0.00862716249260797,-0.012137019618368569,0.016643459747017926,-0.05882151125381253,-0.009017919265779488,-0.2954568075606101
6536,-0.2342,0.1223,9.4643,0.475,-0.5205,0.8643,1.2897,-32.6014,-32.6125,0.008290313946973065,-0.009084438756630484,0.015084880724986989,-0.0732172022444613,-0.030288452153149303,-0.3323443624642941
6544,-0.3015,0.1306,9.4172,0.4166,-0.4146,0.8162,1.2947,-32.4734,-32.4665,0.007271041663808377,-0.00723613507876849,0.014245377354777718,-0.12695127006501128,-0.01950444467156661,-0.3779451603343489
6552,-0.3582,0.0767,9.535,0.3633,-0.3613,0.8102,1.2997,-32.3461,-32.3215,0.006340781172495399,-0.0063058745874555126,0.014140657599658059,-0.16792094431596438,-0.0699032903574798,-0.2596996265077056
6560,-0.2206,0.0716,9.5017,0.4698,-0.4704,0.7111,1.3064,-32.2115,-32.1793,0.008199556825869361,-0.008210028801381325,0.012411036310931677,-0.02581394956085204,-0.06121423949844364,-0.2957020108326436
6568,-0.2491,0.0338,9.5303,0.7102,-0.2973,0.6484,1.3112,-32.0826,-32.0457,0.01239532834766373,-0.005188863866179142,0.011316714869931233,-0.04690717799578073,-0.0869398547817033,-0.266897015226208
6576,-0.1273,0.0141,9.6373,0.6148,-0.0625,0.7404,1.3197,-31.9533,-31.9109,0.010730284241261137,-0.001090830782496456,0.012922417781766015,0.06807473156944918,-0.09637934495382129,-0.16257128468448734
6584,-0.1337,0.0264,9.6626,0.7182,0.1247,0.7591,1.3213,-31.8305,-31.7643,0.012534954687823273,0.002176425577236929,0.013248794351888955,0.05319188989214134,-0.07290900397876529,-0.1368604320340836
6592,-0.0798,-0.0039,9.7611,0.7931,0.0931,0.9636,1.3229,-31.7083,-31.6186,0.013842206297567028,0.0016249015336067209,0.01681799267221736,0.09780789531629183,-0.09455189600420347,-0.039521015105057344
6600,-0.042,0.0688,9.7495,0.8007,0.0868,0.8711,1.3283,-31.5838,-31.4844,0.013974851320718596,0.001514945790731078,0.015203563114122605,0.12014994606653068,-0.020387037564805338,-0.0509284519417168
6608,-0.1043,0.0909,9.7113,0.7227,0.1742,0.9454,1.3279,-31.4657,-31.3566,0.01261349450416302,0.003040363556974122,0.016500342748354394,0.041932681630710726,0.0005238896957185194,-0.08780506961733003
6616,-0.1029,0.059,9.7569,0.6508,0.175,0.8938,1.3246,-31.3434,-31.2182,0.011358602771979098,0.0030543261909900766,0.015599752854325319,0.03158627342471667,-0.023557997160950472,-0.042458591012749736
6624,-0.0729,0.0811,9.7535,0.7579,0.2985,0.6204,1.3232,-31.2255,-31.0815,0.013227850400865025,0.005209807817203074,0.01082802267937282,0.046341637448452835,-0.002109288402445636,-0.0460007241367375
6632,-0.0794,0.0287,9.7463,0.5831,0.254,0.455,1.3218,-31.1081,-30.9456,0.010177014868378935,0.004433136300065597,0.0079412480965742,0.030897155528757016,-0.04265154401602699,-0.053476622324591716
6640,-0.0867,0.0701,9.7549,0.5946,0.11,0.4088,1.3204,-30.9913,-30.8106,0.010377727732358283,0.0019198621771937625,0.0071349059821528196,0.0082608246233017,-0.0012657845962295822,-0.04446643865309419
6648,-0.0642,0.0425,9.7895,0.4136,0.2257,0.434,1.3255,-30.8769,-30.6791,0.007218681786248547,0.003939208121751202,0.00757472895365539,0.019970092888707405,-0.018981766927788767,-0.01023600754776588
6656,-0.1085,0.0297,9.8618,0.2885,0.411,0.5087,1.3305,-30.7631,-30.5483,0.00503527489200364,0.007173303225696694,0.008878489904895155,-0.01379551617568279,-0.019933485215017747,0.062411769942514184
6664,-0.0055,0.0123,9.9709,0.3235,0.4415,0.4628,1.3409,-30.6415,-30.41,0.005646140130201656,0.007705628647554965,0.008077383778229757,0.0761548222444526,-0.03214326945359325,0.1705664635103723
6672,-0.0622,0.0457,9.9545,0.4317,0.292,0.6829,1.3512,-30.5205,-30.2726,0.00753458638085952,0.005096361415823442,0.011918853461869276,0.0038280421099701964,-0.0003731878192719139,0.15479848047284328
6680,-0.0142,0.0463,9.9523,0.5484,0.389,0.6854,1.3613,-30.4001,-30.1359,0.009571385617936903,0.006789330790257942,0.011962486693169135,0.03642665945408467,-0.000588428379563663,0.15235114795659932
6688,0.021,0.0614,10.005,0.4441,0.2952,0.6585,1.3731,-30.2867,-29.9992,0.007751007208106817,0.005152211951887261,0.01149299312438266,0.05659540994365958,0.010541252098248665,0.20504481756966086
6696,0.0429,0.0565,9.9944,0.4723,0.5548,0.6701,1.3848,-30.1738,-29.8741,0.008243190057169218,0.009683086690064539,0.011695451317614004,0.06328179097169945,0.0038915546099409747,0.19445067478619116
6704,0.054,0.1016,9.9598,0.286,0.6536,0.7771,1.3962,-30.0614,-29.7497,0.004991641660703782,0.011407471991034937,0.013562953617247936,0.06189519930780263,0.03999148749464386,0.1601919793360711
6712,0.0436,0.0682,9.9353,0.2678,0.6415,0.8929,1.4111,-29.9586,-29.6198,0.004673991736840814,0.011196287151543624,0.015584044891057369,0.036620467464979545,0.004308279668233515,0.13556131630664048
6720,0.0833,0.0954,9.9436,0.2584,0.4353,0.9075,1.4302,-29.8535,-29.4905,0.004509930787153348,0.007597418233931317,0.01583886296184854,0.0621783038775718,0.02507022220306606,0.14418052694567507
6728,0.0687,0.1054,9.947,0.1401,0.5741,0.9029,1.4472,-29.7443,-29.3727,0.0024452062820440558,0.010019935235699447,0.0157585778162568,0.03553207309627075,0.025407490267532206,0.14769972311286317
6736,0.0696,0.0926,9.9028,-0.0211,0.5068,1.1811,1.4658,-29.6339,-29.2555,-0.0003682644721708035,0.008845328649107262,0.02061408379530503,0.022345057506293346,0.00771391500914556,0.10344929577166262
6744,0.0413,0.107,9.8969,-0.1752,0.5571,1.4071,1.4841,-29.524,-29.139,-0.0030578168494940655,0.00972322926286041,0.02455852790481221,-0.0010868178429287772,0.007087710360033287,0.09756196662535821
6752,0.0972,0.0762,9.9039,-0.2345,0.4159,1.4153,1.4942,-29.4103,-29.0081,-0.004092797095926703,0.007258824359044416,0.024701644903475747,0.04084273870208733,-0.017069504645806928,0.10457116652237808
6760,0.0595,0.0762,9.8979,-0.1579,0.3689,1.3831,1.5198,-29.3023,-28.8963,-0.0027558748888990466,0.006438519610607082,0.02413964888433357,0.0007736432363032413,-0.001276972427649115,0.09837203134018146
6768,0.0503,0.0466,9.917,-0.1381,0.2999,1.3817,1.539,-29.1922,-28.7782,-0.002410299697004169,0.005234242426730994,0.02411521427480565,-0.003896175358035951,-0.01553621320260799,0.11722411241658293
6776,0.0512,0.0485,9.9226,-0.0444,0.5006,1.4816,1.564,-29.0809,-28.6676,-0.0007749261878854823,0.008737118235483614,0.025858798197547987,0.0010872316915433503,0.001902956556218181,0.12285037913419217
6784,0.0059,0.0452,9.9007,-0.1414,0.5752,1.4172,1.5886,-28.9701,-28.5576,-0.002467895562319982,0.010039133857471384,0.02473480615926364,-0.027476718596141633,-0.0006956113080969368,0.10076678273254203
6792,0.0552,0.0236,9.8954,-0.1329,0.5372,1.3743,1.6128,-28.8598,-28.4481,-0.002319542575900464,0.009375908741713538,0.02398605991015807,0.011500752592722608,-0.01069435204363969,0.0955696411840865
6800,0.062,0.0062,9.9276,-0.1755,0.5355,1.1652,1.6392,-28.75,-28.3452,-0.003063052837250048,0.009346238144429635,0.02033657644423793,0.010327765197990543,-0.014591090367161216,0.12777944141326536
6808,0.0913,-0.0236,9.9112,-0.1068,0.3766,0.8506,1.6653,-28.6408,-28.2428,-0.0018640116411299441,0.006572909963010645,0.014845770617463767,0.02971981755254605,-0.0323204849903786,0.11155135227047097
6816,0.0514,-0.0163,9.8776,-0.1825,0.1259,0.6191,1.6893,-28.5414,-28.1417,-0.0031852258848896514,0.002197369528260861,0.010805333399096895,-0.003975261070010474,-0.010168771545787636,0.07774114883482142
6824,0.0685,-0.0317,9.8518,-0.2362,-0.1004,0.7418,1.713,-28.4425,-28.0411,-0.004122467693210606,-0.0017523105690023068,0.012946852391293937,0.005890862611889705,-0.01122536028457301,0.05208098165175379
6832,0.0494,-0.0456,9.8549,-0.4209,-0.1809,0.731,1.7363,-28.344,-27.941,-0.007346090821644133,-0.0031573006168577424,0.012758356832078549,-0.006117442436280776,-0.010628014143774837,0.05512168124845651
6840,0.0385,-0.0404,9.8745,-0.3122,-0.1485,0.6701,1.7576,-28.2374,-27.8439,-0.005448917924726297,-0.0025918139392115793,0.011695451317614004,-0.0022779388946927593,-0.00021896278823709778,0.0746574331998815
6848,0.0573,-0.0548,9.8836,-0.2749,-0.2028,0.5798,1.7819,-28.1306,-27.7522,-0.004797910113732411,-0.0035395277230445004,0.010119419003063122,0.004373879636911139,-0.003701743526551646,0.08391635214866433
6856,0.0434,-0.0319,9.8964,-0.2392,-0.5508,0.2055,1.7993,-28.0284,-27.6625,-0.004174827570770436,-0.009613273519984766,0.003586651612848347,-0.0033152397070181656,0.00540276654738428,0.09654454591597883
6864,0.0212,-0.0635,9.8856,-0.3224,-0.6302,0.2849,1.8163,-27.9267,-27.5732,-0.005626941508429719,-0.010999064946068265,0.004972443038931845,-0.015249256711503695,-0.014482375349778975,0.08580430571908337
6872,0.0271,-0.0766,9.8823,-0.4633,-0.3729,0.2755,1.8249,-27.8254,-27.4884,-0.008086110424489729,-0.006508332780686855,0.004808382089244378,-0.004757174282566528,-0.011955775090632923,0.08262564750556756
6880,-0.0327,-0.1286,9.8592,-0.4301,-0.4041,0.2318,1.8464,-27.7254,-27.4047,-0.007506661112827611,-0.007052875507309086,0.004045673206122856,-0.05369840400345782,-0.052574375845671116,0.05980650451173375
6888,-0.0376,-0.1073,9.852,-0.5716,-0.4019,0.0594,1.8545,-27.6226,-27.318,-0.009976302004399588,-0.00701447826376521,0.0010367255756846318,-0.04531234283754417,-0.023135105436696734,0.05252468195248916
6896,-0.0061,-0.1167,9.8455,-0.6057,-0.4078,0.0972,1.8624,-27.5202,-27.2316,-0.010571459279329655,-0.007117452689632876,0.0016964600329384882,-0.008185015080293968,-0.01714365857139277,0.04617516858698245
6904,0.0115,-0.1075,9.8378,-0.5902,-0.4935,-0.0747,1.8734,-27.411,-27.1431,-0.010300933245270531,-0.008613199858592015,-0.0013037609512397642,-0.0033025081999950596,0.003030717046142082,0.038393021636904834
6912,0.0757,-0.0786,9.8048,-0.6981,-0.5141,-0.2231,1.876,-27.3113,-27.0606,-0.012184143508172415,-0.008972737684502848,-0.0038938295611993493,0.04623016624791523,0.02547789380953251,0.005265174316077648
6920,0.1097,-0.048,9.8328,-0.5292,-0.4218,-0.2929,1.8818,-27.2063,-26.9775,-0.009236282401553992,-0.0073617987849120825,-0.005112069379091391,0.06659942355162787,0.048143158935841396,0.03318568333936511
6928,0.0994,-0.0284,9.8022,-0.5624,-0.4722,-0.4531,1.8931,-27.1083,-26.9068,-0.009815731713216109,-0.008241444727917224,-0.007908086840786307,0.04565426216977753,0.05613821498533186,0.0024780514502538153
6936,0.0646,-0.0299,9.8332,-0.6315,-0.5257,-0.6809,1.9042,-27.0107,-26.8362,-0.01102175422634419,-0.00917519587773419,-0.01188394687682939,0.00694871705826786,0.040200989716314035,0.03337302281150478
6944,0.0336,-0.0485,9.7888,-0.4976,-0.4116,-0.6534,1.9151,-26.9135,-26.7658,-0.008684758357923783,-0.007183775201208661,-0.01140398133253095,-0.012614414470405332,0.011426594964173718,-0.011036982423773267
6952,0.0679,-0.0594,9.8033,-0.5802,-0.3371,-0.6298,1.9154,-26.8096,-26.6827,-0.0101264003200711,-0.005883504908472885,-0.010992083629060288,0.005507190641098255,0.0009884046888954954,0.0037134981550437374
6960,0.1058,0.0245,9.8083,-0.3685,-0.3912,-0.6072,1.9157,-26.7062,-26.5999,-0.006431538293599104,-0.006827728033801817,-0.010597639218109568,0.03547755375669504,0.07153627625801177,0.008576180280119416
6968,0.0044,-0.033,9.836,-0.3874,-0.7016,-0.8709,1.9095,-26.5953,-26.5109,-0.006761405522226033,-0.012245230031992215,-0.015200072455618616,-0.05151057600893507,0.011145870470562579,0.03591514756662839
6976,-0.0446,-0.0413,9.8378,-0.3708,-0.8278,-0.9711,1.9032,-26.485,-26.4223,-0.0064716808663949745,-0.01444783554800906,-0.016948892366116932,-0.08590645144769857,0.002794669098053157,0.037612309977673064
6984,-0.0015,-0.0146,9.8536,-0.3149,-0.9191,-1.011,1.8969,-26.3753,-26.334,-0.005496041814530144,-0.016041321155079884,-0.01764527873766267,-0.03124993724256426,0.021153542216462186,0.05353867090772724
6992,-0.0125,-0.0123,9.8451,-0.4002,-0.8731,-1.137,1.8953,-26.2692,-26.2475,-0.006984807666481307,-0.015238469699162491,-0.01984439359517553,-0.02965645347831847,0.016308567291167798,0.04505744398680456
7000,-0.0098,-0.0185,9.8442,-0.1484,-1.1517,-0.879,1.8937,-26.1637,-26.1613,-0.002590068609959585,-0.020100956995218692,-0.015341444125030157,-0.013780457041994765,0.004778079576319137,0.044211456432620366
7008,-0.0215,-0.0646,9.9132,0.3884,-1.2876,-0.7548,1.8872,-26.0571,-26.0739,0.006778858814745976,-0.022472859448678988,-0.0131737451940532,-0.018859397666682973,-0.028226913419554092,0.11337567201396936
7016,0.0937,0.013,9.965,0.4297,-1.0654,-0.6094,1.8808,-25.951,-25.9868,0.0074996797958196346,-0.018594737850747587,-0.010636036461653444,0.08053766540150772,0.041887275254393404,0.1650355157733081
7024,0.0412,0.0627,10.0006,0.6213,-0.9037,-0.8704,1.8789,-25.8385,-25.8937,0.010843730642640768,-0.015772540450272755,-0.015191345809358643,0.021966767656914764,0.07539130883156818,0.20057311866031924
7032,0.0143,-0.0767,9.9736,0.7217,-1.0023,-0.344,1.8763,-25.7297,-25.8134,0.012596041211643077,-0.017493435092739165,-0.006003932626860493,-0.0048451782558429106,-0.04919179792492277,0.17378268418078946
7040,0.06,-0.1342,9.9241,0.9112,-0.9474,-0.3605,1.8682,-25.6153,-25.7202,0.01590344014417233,-0.01653524933339428,-0.006291911953439558,0.03405059243139922,-0.09318267608046399,0.12469284139481651
7048,0.0836,-0.1032,9.8997,1.063,-1.1241,-0.2857,1.87,-25.503,-25.6374,0.018552849948699723,-0.01961924612166826,-0.0049864056729478,0.04533421974680916,-0.05209184463480161,0.10035002099635193
7056,-0.0289,-0.0465,9.8942,1.1014,-1.2131,-0.1742,1.8717,-25.3914,-25.5548,0.019223056381465545,-0.021172589155943212,-0.003040363556974122,-0.053132511634444914,0.001808300475284209,0.09420864780285498
7064,-0.0233,-0.0704,9.9123,1.1969,-1.1969,-0.0836,1.865,-25.275,-25.468,0.020889845817120133,-0.020889845817120133,-0.0014590952546672594,-0.034791672029425964,-0.016992041674842966,0.11250176040726423
7072,-0.0437,-0.1084,9.9146,1.2002,-1.2401,-0.0129,1.8628,-25.1563,-25.3807,0.020947441682435942,-0.02164382805398168,-0.0002251474735072685,-0.04560696507260007,-0.04547736522203955,0.11507968823192627
7080,-0.0498,-0.0599,9.9104,1.1501,-1.3267,0.1161,1.8704,-25.0481,-25.299,0.02007303172718678,-0.02315528318620877,0.0020263272615654165,-0.0378028480321688,0.0004757397124930005,0.1106340326112516
7088,0.0166,-0.0255,9.9447,1.0861,-1.0335,0.0687,1.8779,-24.9405,-25.2176,0.018956021005910415,-0.0180379778193614,0.0011990411961201044,0.017114625066362358,0.021349253610383305,0.14470890468791353
7096,-0.0308,-0.0464,9.8775,1.2036,-1.0732,-0.1579,1.8852,-24.8335,-25.1364,0.02100678287700375,-0.018730873532403144,-0.0027558748888990466,-0.01592187830727704,-0.0016435180746434863,0.0776440329989363
7104,0.0288,-0.0953,9.8981,1.3186,-0.8924,-0.1053,1.8901,-24.7137,-25.0481,0.023013911516797228,-0.015575318244797397,-0.001837831702350029,0.03217761901847377,-0.04021205188826222,0.09846668589217344
7112,0.0084,-0.1068,9.9109,1.3139,-0.8849,-0.2817,1.895,-24.5945,-24.96,0.022931881041953497,-0.015444418550897822,-0.004916592502868027,0.007048504891025527,-0.038042647987084344,0.11140346699259851
7120,-0.0382,-0.1522,9.9134,1.3681,-1.1151,-0.4636,1.8974,-24.4813,-24.879,0.023877849496534424,-0.01946216648898877,-0.008091346412245713,-0.03423770596192954,-0.07106683130603117,0.11432806220263103
7128,-0.0804,-0.1405,9.9001,1.2866,-1.2418,-0.611,1.8998,-24.3687,-24.7983,0.022455406156159045,-0.021673498651265586,-0.010663961729685353,-0.06569211524520548,-0.05159615161629287,0.10107099273270492
7136,-0.0808,-0.0981,9.9013,1.2939,-1.403,-0.6879,1.9021,-24.2568,-24.7179,0.022582815191554632,-0.024486969405480445,-0.012006119924468992,-0.05242008234920806,-0.008794137861929851,0.10197297199430722
7144,-0.0743,-0.0947,9.8987,1.2637,-1.3465,-0.6468,1.9014,-24.1425,-24.6311,0.022055725757452342,-0.02350085837810365,-0.011288789601899324,-0.03207095189250672,-0.005299118070136017,0.09937844732649737
7152,-0.098,-0.0575,9.8623,1.328,-1.2498,-0.4501,1.9006,-24.029,-24.5446,0.023177972466484696,-0.021813124991425133,-0.007855726963226478,-0.043958953797294066,0.02196362623510058,0.06283208563866971
7160,-0.1359,-0.027,9.8265,1.5576,-1.504,-0.4301,1.8968,-23.9131,-24.4687,0.02718524842906368,-0.026249751949994717,-0.007506661112827611,-0.07089035466155125,0.04155797757211622,0.027133231625388277
7168,-0.0668,-0.0131,9.8725,1.4358,-1.4457,-0.3335,1.8929,-23.798,-24.3931,0.025059437400134582,-0.025232224996082023,-0.005820673055401089,-0.003073295075115556,0.03811288891754651,0.07266063746524942
7176,0.0117,-0.001,9.906,1.25,-1.47,-0.3826,1.881,-23.6864,-24.3184,0.02181661564992912,-0.025656340004316644,-0.006677629718130304,0.06041359722711605,0.0399665215789883,0.10574211073672934
7184,0.1228,0.1029,9.8328,1.0057,-1.4506,-0.0135,1.8793,-23.5726,-24.2397,0.017552776287306972,-0.025317746129429743,-0.00023561944901923448,0.1569759505701584,0.13221306568084823,0.031963300694622276
7192,0.0767,0.1231,9.8208,1.1186,-1.4453,0.1715,1.8754,-23.4594,-24.1626,0.01952325301280857,-0.025225243679074045,0.0029932396671702756,0.09958145862668187,0.13807414301150728,0.020395521776574554
7200,0.091,0.1301,9.8724,1.072,-1.3096,0.2764,1.8642,-23.3469,-24.0808,0.018709929581379212,-0.022856831884117742,0.004824090052512327,0.10243084539011496,0.13127351978980858,0.07227248180046253
7208,0.236,0.1477,9.9778,0.9048,-1.1692,0.2593,1.853,-23.235,-23.9992,0.015791739072044696,-0.0204063896143177,0.004525638750421296,0.23222286965821423,0.13960443562517286,0.1780051749015179
7216,0.2187,0.1359,10.0039,0.8196,-1.0642,0.491,1.8418,-23.1332,-23.923,0.014304718549345525,-0.018573793899723655,0.008569566627292158,0.19967898945567908,0.11844590202145186,0.20451960763055688
7224,-0.1408,0.1425,9.8992,0.8234,-1.0306,0.4966,1.8372,-23.0348,-23.8499,0.014371041060921309,-0.01798736327105356,0.00866730506540384,-0.1485835194102994,0.11377427719918962,0.09945805999537782
7232,-0.022,0.1225,9.992,0.627,-0.9557,0.8139,1.8239,-22.9333,-23.7699,0.010943214410004447,-0.016680111661309806,0.014205234781981848,-0.02631843891740737,0.07758771156179348,0.19243922857615203
7240,0.0581,0.1249,10.0405,0.4579,-0.8707,0.9147,1.8106,-22.8324,-23.6902,0.007991862644882034,-0.015196581797114628,0.01596452666799213,0.04355613107094708,0.06594296757541981,0.2411339129838055
7248,-0.0297,0.1176,10.0119,0.2429,-0.9762,1.0964,1.7974,-22.7321,-23.6108,0.004239404753094226,-0.017037904157968645,0.01913578991886583,-0.03593070573056092,0.04550834906013592,0.2124668006716277
7256,0.0212,0.1296,10.0061,0.1386,-1.117,1.0541,1.7814,-22.6387,-23.5239,0.002419026343264141,-0.01949532774477666,0.018397515645272228,0.00935237658012905,0.04196150555586751,0.2068693693434298
7264,0.0353,0.16,9.9836,0.0095,-1.2116,1.1817,1.7655,-22.5459,-23.4372,0.0001658062789394613,-0.021146409217163296,0.020624555770816993,0.016795132413665696,0.057373865559485815,0.1847654560874865
7272,0.0549,0.1507,9.9901,-0.01,-1.3128,1.3704,1.7474,-22.4514,-23.3531,-0.00017453292519943296,-0.022912682420181556,0.023917992069330294,0.024894084774532033,0.03533149264492492,0.19129393422947416
7280,0.1013,0.0998,9.9435,-0.1885,-1.3083,1.6735,1.7295,-22.3574,-23.2693,-0.003289945640009311,-0.022834142603841815,0.029208085032125106,0.05414542438097843,-0.01138627281676138,0.1443628556991996
7288,0.1478,0.1418,9.9023,-0.21,-1.0932,2.0514,1.7116,-22.2639,-23.1858,-0.003665191429188092,-0.01907993938280201,0.035803684275411675,0.08403442240148529,0.026837663627775805,0.10402520825056527
7296,0.1786,0.151,9.8632,-0.2305,-1.2423,2.1594,1.6995,-22.1744,-23.0957,-0.0040229839258469294,-0.021682225297525556,0.03768863986756556,0.09825807411599188,0.03216625886745215,0.06543074998053378
7304,0.1185,0.1184,9.8297,-0.2794,-1.0381,2.2253,1.6873,-22.0854,-23.0059,-0.004876449930072156,-0.018118262964953134,0.03883881184462981,0.021352317886103502,0.00027939788414356817,0.031104052976843377
7312,0.0782,0.0989,9.7952,-0.5529,-1.0056,2.3123,1.6724,-21.9996,-22.9122,-0.009649925434276648,-0.017551030958054978,0.04035724829386488,-0.008987905830392733,-0.006968350491295928,-0.0039951944866736255
7320,0.1548,0.1158,9.7331,-0.6757,-1.0091,2.3289,1.6576,-21.9143,-22.819,-0.011793189755725684,-0.01761211748187478,0.04064697294969594,0.051300109361109535,0.009403713873052158,-0.06512002339294831
7328,0.1981,0.1977,9.7693,-0.4119,-0.7805,2.0835,1.6449,-21.8239,-22.7262,-0.007189011188964643,-0.013622294811815741,0.03636393496530185,0.08151262435629049,0.0808105702889924,-0.02736592653750769
7336,0.1553,0.2085,9.7346,-0.5782,-0.4126,2.0967,1.6308,-21.7367,-22.6345,-0.010091493735031215,-0.0072012284937286045,0.0365943184265651,0.03235356918141607,0.0783273258451559,-0.062297726024523215
7344,0.1926,0.2091,9.7429,-0.7319,-0.594,1.8241,1.6148,-21.6528,-22.5439,-0.012774064795346499,-0.010367255756846317,0.03183655088562857,0.05837663516790396,0.06833295918259452,-0.05336772237939513
7352,0.2141,0.2206,9.7718,-1.0496,-0.4396,1.6033,1.6001,-21.5748,-22.4502,-0.018318975828932483,-0.007672467391767072,0.027982863897225086,0.06771341033017363,0.06993148364058402,-0.023850303332231704
7360,0.2331,0.2269,9.7693,-1.2254,-0.4465,1.3976,1.5856,-21.4971,-22.3569,-0.021387264653938514,-0.007792895110154682,0.02439272162587275,0.07431994823479447,0.06774945620482267,-0.025802934947634526
7368,0.1377,0.2011,9.7725,-1.4548,-0.2665,1.1715,1.5662,-21.4178,-22.2605,-0.025391049958013508,-0.004651302456564889,0.02044653218711357,-0.014307235603591085,0.029436712225480676,-0.024515994950288444
7376,0.1189,0.1838,9.8081,-1.5569,-0.1477,1.0407,1.5559,-21.3382,-22.1694,-0.027173031124299717,-0.0025778513051956248,0.018163641525504988,-0.018933567706455993,0.008504077849308466,0.010520600899518229
7384,0.1246,0.1608,9.9014,-1.7851,-0.0741,0.6302,1.5456,-21.2447,-22.0787,-0.031155872477350775,-0.0012932889757277981,0.010999064946068265,-0.003981588956350727,-0.0018355531739164992,0.10348850343624783
7392,0.1166,0.1268,9.9071,-1.6754,0.015,0.3097,1.5353,-21.1517,-21.9884,-0.029241246287912998,0.0002617993877991494,0.0054052846934264384,-0.006888723301458734,-0.018594383950340885,0.10857764789562196
7400,0.148,0.1106,9.9363,-1.7385,0.1161,0.1658,1.525,-21.0591,-21.8984,-0.03034254904592142,0.0020263272615654165,0.0028937558998065986,0.015342068326631738,-0.019547242143857366,0.13798654538553912
7408,0.1432,0.0982,9.9719,-1.8388,-0.0325,0.175,1.5189,-20.9853,-21.8075,-0.03209311428567173,-0.0005672320068981572,0.0030543261909900766,0.005320306511634676,-0.014652212101513089,0.17339942532229813
7416,0.107,0.0464,9.8842,-2.1214,0.0468,0.1757,1.5127,-20.9119,-21.717,-0.037025414751807706,0.0008168140899333463,0.003066543495754037,-0.022852438165909744,-0.04829806906826252,0.08474363160694942
7424,0.0332,0.1057,9.856,-2.1676,0.3332,0.1977,1.5086,-20.8409,-21.6268,-0.03783175686622909,0.005815437067645106,0.0034505159311927895,-0.08053268880449325,0.012056810123222622,0.05628631125149397
7432,0.037,0.0264,9.7771,-1.7479,0.4471,0.0214,1.5044,-20.7703,-21.5371,-0.030506609995608888,0.007803367085666648,0.0003735004599267865,-0.06301524957594677,-0.053727518009959986,-0.023145045459180835
7440,-0.1517,0.1327,9.6647,-2.0291,1.1854,-0.1605,1.5002,-20.6999,-21.4477,-0.035414475852216944,0.020689132953140784,-0.002801253449450899,-0.23448717807025737,0.05194290342681086,-0.1361826399654973
7448,-0.4947,0.2212,9.6141,-1.9807,1.0807,0.0923,1.4867,-20.6292,-21.3614,-0.034569736494251685,0.018861773226302718,0.0016109388995907662,-0.5611974310918374,0.13785195807506262,-0.1879954941234665
7456,-0.8255,0.2019,9.6676,-2.0304,0.9939,0.2326,1.4731,-20.5589,-21.2755,-0.03543716513249287,0.01734682743557164,0.004059635840138811,-0.8755789218042644,0.1168298887014282,-0.13540399453768792
7464,-0.5509,0.1207,9.6481,-2.2993,1.0203,0.2921,1.4663,-20.4802,-21.1885,-0.04013035549110562,0.017807594358098144,0.005098106745075437,-0.583638248177954,0.039588732514273695,-0.15315118613743017
7472,-0.4715,0.0982,9.6509,-2.0631,1.0775,0.2371,1.4595,-20.4019,-21.102,-0.03600788779789501,0.0188059226902389,0.0041381756564785556,-0.48724999751190734,0.0197895878832739,-0.14940301783687282
7480,-0.3672,0.1303,9.7009,-2.0719,0.9002,0.1817,1.4587,-20.3246,-21.0145,-0.03616147677207051,0.015711453926452956,0.003171263250873697,-0.36665100253122956,0.052851510751902885,-0.09834815610485492
7488,-0.3526,0.1192,9.6905,-2.0137,0.6986,0.2355,1.4539,-20.2517,-20.9267,-0.03514569514740982,0.012192870154432387,0.004110250388446646,-0.3356634213813667,0.04280806832761318,-0.10826005369352565
7496,-0.3239,0.0828,9.6948,-1.942,0.7779,-0.0144,1.4491,-20.1832,-20.8438,-0.03389429407372988,0.01357691625126389,-0.0002513274122871834,-0.2901848108844207,0.008859604918442825,-0.10378278023162935
7504,-0.2624,0.0375,9.6923,-1.7374,0.843,-0.1548,1.4429,-20.1156,-20.7627,-0.030323350424149482,0.014713125594312197,-0.002701769682087222,-0.21196904160178864,-0.03125700368591828,-0.106443819468371
7512,-0.2441,0.0084,9.7164,-1.6538,0.7186,-0.0569,1.4367,-20.0483,-20.6819,-0.028864255169482222,0.012541936004831252,-0.0009930923443847734,-0.17756389042989282,-0.05352209429069301,-0.08230012913353413
7520,-0.1943,-0.0075,9.7579,-1.8378,0.6344,0.0659,1.4326,-19.9813,-20.5994,-0.03207566099315179,0.011072368774652026,0.0011501719770642632,-0.1128235163860089,-0.059397186959032476,-0.040995748626214024
7528,-0.1952,-0.0155,9.8473,-1.7231,0.6658,-0.0326,1.4297,-19.9127,-20.5226,-0.030073768341114294,0.011620402159778245,-0.0005689773361501514,-0.09852258362015967,-0.057375542577497766,0.048586798502144646
7536,-0.2216,-0.0642,9.7675,-1.7121,0.5038,-0.0841,1.4268,-19.8496,-20.4395,-0.029881782123394915,0.008792968771547434,-0.001467821900927231,-0.11279181157106102,-0.09348235382308055,-0.030873964024918266
7544,-0.2391,-0.0522,9.7562,-1.5496,0.5756,-0.2827,1.4252,-19.7843,-20.3587,-0.027045622088904132,0.010046115174479361,-0.00493404579538797,-0.11648167810183462,-0.07115939226833637,-0.04168557334010892
7552,-0.187,0.0015,9.777,-1.5968,0.5696,-0.4993,1.4235,-19.7192,-20.2782,-0.027869417495845455,0.0099413954193597,-0.008714428955207687,-0.048572669156847804,-0.010953793549308692,-0.021338488309464054
7560,-0.2907,0.0355,9.8273,-1.4767,0.6225,-0.3891,1.4193,-19.6537,-20.1974,-0.025773277064200264,0.010864674593664702,-0.006791076119509937,-0.13535106738798153,0.022115771725114395,0.030706129836142182
7568,-0.1767,0.0548,9.9088,-1.2284,0.8411,-0.4437,1.415,-19.5886,-20.117,-0.021439624531498343,0.014679964338524304,-0.0077440258910988395,-0.012166452045378402,0.029428564230811142,0.11047573565728896
7576,-0.1197,0.004,9.9624,-1.2071,1.0234,-0.4853,1.4166,-19.5127,-20.0375,-0.021067869400823554,0.01786169956490997,-0.008470082859928481,0.032950477997073166,-0.012807966473949902,0.1630571649466397
7584,-0.191,0.0355,9.903,-1.1706,0.9818,-0.6743,1.4181,-19.4372,-19.9583,-0.020430824223845623,0.017135642596080327,-0.011768755146197764,-0.02372026912938363,0.01332247958677793,0.10486800065352142
7592,-0.1303,-0.039,9.9272,-1.0371,0.9927,-0.8605,1.4195,-19.3621,-19.8795,-0.01810080967243319,0.01732588348454771,-0.015018558213411207,0.03079180121583074,-0.04592300433671897,0.12797773328740725
7600,-0.1501,0.0097,9.9308,-0.9255,1.0058,-1.0118,1.4145,-19.2976,-19.7965,-0.01615302222720752,0.017554521616558967,-0.017659241371678628,-0.0032570636065084647,0.00016580725089232175,0.13193848672275088
7608,-0.0418,-0.0208,9.8175,-0.848,0.725,-0.7859,1.4095,-19.2334,-19.7138,-0.014800392056911913,0.01265363707695889,-0.013716542591423436,0.08940855256442355,-0.02414256066910284,0.017174205314514523
7616,-0.1766,-0.0722,9.7336,-1.0966,0.7177,-0.6098,1.4019,-19.165,-19.6308,-0.019139280577369817,0.012526228041563304,-0.010643017778661421,-0.03718501071302842,-0.06141327868165074,-0.06479506922531186
7624,-0.289,-0.0267,9.6632,-0.9903,0.7402,-0.5401,1.402,-19.0989,-19.5482,-0.017283995582499843,0.012918927123262028,-0.009426523290021374,-0.13445812154045528,-0.013539122909681038,-0.13338705462442668
7632,-0.0386,0.02,9.7339,-0.7927,0.6043,-0.8094,1.4021,-19.0331,-19.4627,-0.013835224980559049,0.010547024669801732,-0.014126694965642103,0.10267929888681097,0.031238456806032947,-0.06659462005221428
7640,-0.0516,-0.0571,9.7049,-0.6304,0.7623,-0.955,1.3983,-18.9682,-19.3859,-0.011002555604572252,0.013304644887952773,-0.016667894356545847,0.07685991902868235,-0.03801119501816002,-0.09517363978622129
7648,-0.0893,-0.0613,9.7861,-0.5765,0.8255,-1.0035,1.3939,-18.9061,-19.3107,-0.01006182313774731,0.014407692975213191,-0.017514379043763097,0.030570899327949014,-0.030096319929432038,-0.013394611938165824
7656,-0.087,-0.0865,9.7412,-0.8263,0.6245,-1.2126,1.3939,-18.838,-19.2358,-0.014421655609229145,0.01089958117870459,-0.02116386250968324,0.025401646612401026,-0.04083599401768115,-0.05814617909189046
7664,-0.0335,-0.1097,9.7198,-0.5932,0.6644,-1.0738,1.3939,-18.7702,-19.1611,-0.010353293122830362,0.011595967550250325,-0.018741345507915112,0.06756540735128302,-0.053278200951119126,-0.07990407819795031
7672,0.0478,-0.1649,9.7973,-0.4903,0.7185,-1.0585,1.3919,-18.7116,-19.0856,-0.008557349322528197,0.012540190675579259,-0.018474310132359978,0.13813644144421722,-0.09785160494502855,-0.0026581397322473777
7680,0.0279,-0.1693,9.8019,-0.4239,0.7115,-0.9532,1.3874,-18.6475,-19.0115,-0.007398450699203963,0.012418017627939655,-0.01663647843000995,0.10738625491940317,-0.09146612498876466,0.0023867833417945405
7688,-0.0047,-0.207,9.7788,-0.3603,0.6969,-1.0231,1.3874,-18.5806,-18.9346,-0.00628842129493557,0.012163199557148481,-0.017856463577153984,0.067858266117774,-0.11543608377866009,-0.019924831767326623
7696,0.1098,-0.2106,9.8389,-0.4303,0.7176,-1.354,1.3866,-18.5196,-18.8587,-0.007510151771331601,0.012524482712311309,-0.023631758072003222,0.1705286441812219,-0.10890199523477326,0.039686069532280044
7704,0.0508,-0.258,9.829,-0.3665,0.604,-1.3131,1.3859,-18.459,-18.7831,-0.006396631708559218,0.01054178868204575,-0.02291791840793754,0.10330458181770633,-0.14332130081869163,0.030929396964820555
7712,0.1623,-0.172,9.8019,-0.3241,0.6287,-1.5246,1.3845,-18.396,-18.7115,-0.005656612105713622,0.01097288500728835,-0.026609289775905546,0.20001534788532865,-0.052780941994333454,0.002569914709738441
7720,0.1762,-0.1844,9.8043,-0.377,0.7137,-1.5829,1.383,-18.3334,-18.6402,-0.006579891280018622,0.01245641487148353,-0.027626816729818243,0.1998942900806261,-0.060055573206705376,0.005395651931641154
7728,0.1459,-0.1706,9.7709,-0.2782,0.731,-1.6599,1.3791,-18.2717,-18.5623,-0.004855505979048225,0.012758356832078549,-0.028970720253853874,0.1553582546733745,-0.04226480415364671,-0.02784796070821116
7736,0.13,-0.1803,9.7825,-0.1837,0.8222,-1.7576,1.3751,-18.2102,-18.4848,-0.0032061698359135836,0.014350097109897379,-0.030675906933052336,0.12590444513588492,-0.04618080315091954,-0.015894024280227015
7744,0.1132,-0.1569,9.8127,-0.2933,0.784,-1.5284,1.3712,-18.149,-18.4075,-0.005119050696099368,0.013683381335635543,-0.02667561228748133,0.09468810153549226,-0.01887159667950911,0.014132216669302977
7752,0.0762,-0.1315,9.8172,-0.3955,0.8676,-1.5439,1.371,-18.0856,-18.3344,-0.0069027771916375736,0.015142476590302803,-0.026946138321540455,0.04316781039874049,0.0052671655148801835,0.018280059517186587
7760,0.0195,-0.2142,9.8067,-0.2453,0.9368,-1.6306,1.3707,-18.0225,-18.2615,-0.00428129265514209,0.01635024443268288,-0.02845933878301954,-0.009428195095038831,-0.06189919554287547,0.008858566557496061
7768,0.0078,-0.2272,9.8145,-0.2029,1.115,-1.7163,1.3642,-17.9615,-18.1907,-0.0035412730522964946,0.019460421159736774,-0.029955085951978676,-0.015382686825154274,-0.05940904907603646,0.016940708175532393
7776,-0.0607,-0.2511,9.8607,-0.157,1.056,-1.5555,1.3596,-17.9009,-18.1172,-0.0027401669256310974,0.018430676901060122,-0.0271485965147718,-0.07130615755284371,-0.07133899105682641,0.06356762891855539
7784,-0.0739,-0.1941,9.8725,-0.0945,1.0263,-1.5644,1.355,-17.8404,-18.0439,-0.0016493361431346415,0.017912314113217805,-0.02730393081819929,-0.06765483873796568,-0.011400729424495154,0.07444606629475281
7792,-0.0498,-0.2048,9.9041,-0.1761,0.9286,-1.7917,1.356,-17.7827,-17.9703,-0.0030735248127620146,0.016207127434019343,-0.0312710642079824,-0.028076534130935846,-0.01421092947596115,0.10629242692313312
7800,-0.059,-0.1781,9.8885,0.1086,0.7311,-1.8169,1.3544,-17.7228,-17.9019,0.001895427567665842,0.012760102161330543,-0.031710887179484976,-0.021333618893397747,0.007133392544539134,0.0902541348246313
7808,-0.1088,-0.1607,9.8307,0.0208,0.617,-1.8598,1.3528,-17.6632,-17.8326,0.00036302848441482053,0.010768681484805013,-0.03245963342859054,-0.05561676513265214,0.0185016914148993,0.032440637138419604
7816,0.022,-0.0904,9.8663,0.2089,0.9611,-1.6127,1.3525,-17.6081,-17.7605,0.0036459928074161546,0.0167743594409175,-0.028146924846912554,0.06646580064034226,0.077149713490259,0.06621315749125856
7824,-0.0114,-0.1274,9.8625,0.3061,1.0769,-1.7631,1.3521,-17.5533,-17.6887,0.005342452840354643,0.018795450714726936,-0.030771900041912024,0.024474606833665005,0.027490467907457388,0.06326073049853953
7832,-0.0375,-0.1199,9.8272,0.3163,1.209,-1.5977,1.3517,-17.4876,-17.6183,0.0055204764240580646,0.021101030656611446,-0.0278851254591134,0.0006756457900344557,0.018304919612003354,0.02798588589853246
7840,-0.082,-0.1126,9.7105,0.4808,1.0099,-1.4501,1.3525,-17.4327,-17.5489,0.008391543043588736,0.017626080115890733,-0.02530901948316977,-0.02926804988564112,0.015934388877975145,-0.08855816644578063
7848,-0.182,-0.1461,9.7143,0.4648,1.1476,-1.165,1.3484,-17.3719,-17.4785,0.008112290363269643,0.020029398495886926,-0.02033308578573394,-0.11231650547292447,-0.0160018197698448,-0.08355915757408638
7856,-0.1522,-0.1181,9.7468,0.3134,1.1672,-0.7617,1.3443,-17.3113,-17.4084,0.005469861875750229,0.020371483029277816,-0.013294172912440809,-0.06527699450930921,0.009677876704547471,-0.051519711119567546
7864,-0.174,-0.132,9.6875,0.326,1.178,-0.584,1.342,-17.248,-17.3398,0.005689773361501515,0.0205599785884932,-0.010192722831646885,-0.07055278500001881,-0.004532775280650948,-0.11029628892209331
7872,-0.1254,-0.1127,9.7695,0.2954,1.2016,-0.6114,1.3397,-17.185,-17.2715,0.0051557026103912496,0.020971876291963863,-0.010670943046693332,-0.006937841625986429,0.0060352375029315295,-0.029049578354117145
7880,-0.1219,-0.0847,9.7758,0.1728,1.0562,-0.5763,1.3374,-17.1253,-17.1992,0.0030159289474462015,0.018434167559564108,-0.010058332479243322,-0.0003845570052164519,0.0183139135565761,-0.023090273880701062
7888,-0.1903,-0.0284,9.8016,0.2103,0.8585,-0.4147,1.3351,-17.0658,-17.1272,0.0036704274169440747,0.014983651628371319,-0.007237880408020485,-0.056673497908077235,0.06307660496840801,0.0031215776680291185
7896,-0.1862,-0.0399,9.768,-0.2233,0.9228,0.0465,1.3328,-17.0066,-17.0554,-0.0038973202197033377,0.01610589833740367,0.0008115781021773632,-0.040541894051583614,0.040701257017318845,-0.03031289075725141
7904,-0.1191,-0.1167,9.789,-0.2459,0.8883,0.0208,1.3335,-16.9447,-16.987,-0.004291764630654057,0.015503759745465629,0.00036302848441482053,0.01866621104458863,-0.023083369344129433,-0.00962495965425525
7912,-0.032,-0.0934,9.7361,-0.0941,1.0792,0.2763,1.3342,-16.883,-16.9188,-0.0016423548261266642,0.018835593287522802,0.004822344723260332,0.09092446747761036,-0.00018304674522612443,-0.06382398075569995
7920,-0.1381,-0.0882,9.6409,0.1816,0.6272,0.2032,1.3294,-16.8252,-16.8504,0.0031695179216217027,0.010946705068508434,0.0035465090400524776,-0.0005758089472783282,0.00011543349267827318,-0.15770756950821685
7928,-0.0915,-0.1477,9.6494,0.4053,0.4242,0.224,1.3288,-16.7677,-16.7803,0.007073819458333018,0.007403686686959946,0.003909537524467298,0.03720603373966658,-0.04769666953584808,-0.14922549021227205
7936,-0.1063,-0.1501,9.6722,0.2939,0.3742,0.3933,1.3283,-16.7104,-16.7106,0.005129522671611334,0.006531022060962781,0.006864379948093698,0.016806769482816022,-0.036168669061281696,-0.12613355995246955
7944,-0.1033,-0.1341,9.7333,0.262,0.2543,0.4164,1.3301,-16.6557,-16.6423,0.004572762640225144,0.00443837228782158,0.007267551005304388,0.009624624766544326,-0.009120732389857562,-0.06523720017592005
7952,-0.1211,-0.1833,9.744,0.4742,0.137,0.5319,1.3277,-16.6013,-16.5815,0.008276351312957111,0.0023911010752322315,0.00928340629135784,-0.005732472439377764,-0.04337877384093292,-0.05362192808324551
7960,-0.1135,-0.1527,9.7628,0.6158,0.5155,0.8397,1.3211,-16.5447,-16.5144,0.010747737533781082,0.008997172294030768,0.014655529728996385,0.0002339300136421047,0.002034893109479476,-0.03534643807130422
7968,-0.1053,-0.1528,9.7543,0.3992,0.4694,0.886,1.3222,-16.4872,-16.4505,0.006967354373961364,0.008192575508861382,0.01546361717266976,-0.006264212250967141,-0.002049640673881012,-0.0439372194200196
7976,-0.1593,-0.0672,9.7384,0.4027,0.4601,1.021,1.3234,-16.4299,-16.3868,0.007028440897781165,0.00803025988842591,0.017819811662862103,-0.050621418898425904,0.07013069760374657,-0.060449391927658525
7984,-0.1572,-0.0263,9.7773,0.5367,0.3418,1.43,1.3227,-16.3758,-16.3204,0.009367182095453565,0.005965535383316618,0.02495820830351891,-0.04142006713920158,0.09644556486840763,-0.02196433576480672
7992,-0.0934,-0.0033,9.6859,0.4676,0.354,1.1652,1.322,-16.322,-16.2543,0.008161159582325486,0.006178465552059927,0.02033657644423793,0.019026336254578665,0.10239837115903874,-0.11420907555233839
8000,-0.0907,-0.0094,9.7261,0.6388,0.2936,1.3493,1.3183,-16.2696,-16.1914,0.011149163261739778,0.005124286683855352,0.023549727597159488,0.019117388130394763,0.08068801805633956,-0.07382603336681015
8008,-0.1548,0.0297,9.6942,0.5785,0.5879,1.3173,1.3159,-16.2138,-16.1364,0.010096729722787197,0.010260790672474663,0.0229912222365213,-0.03905989221070124,0.10415628133414857,-0.10515680560643936
8016,-0.1499,0.0186,9.736,0.4115,0.384,1.5347,1.3134,-16.1583,-16.0816,0.007182029871956666,0.006702064327658226,0.026785568030356973,-0.02785223167482023,0.0781355866132108,-0.06318167709310885
8024,-0.196,0.0619,9.7387,0.3452,0.4851,1.6947,1.3109,-16.103,-16.027,0.006024876577884425,0.008466592201424492,0.029578094833547904,-0.06519970873696145,0.10759191728504174,-0.05994362042418544
8032,-0.1768,0.0523,9.8144,0.3484,0.451,1.7889,1.3096,-16.0492,-15.9656,0.006080727113948244,0.007871434926494426,0.03122219498892656,-0.03783656906415693,0.08356737123595871,0.015703020085018338
8040,-0.1329,0.0455,9.8488,0.2955,0.6771,1.8364,1.3082,-15.9955,-15.9044,0.005157447939643243,0.011817624365253606,0.03205122638362387,0.006139889830219855,0.060795938215602946,0.049612188083820286
8048,-0.1155,0.0015,9.9014,0.1222,0.8986,1.7858,1.3057,-15.9392,-15.8434,0.0021327923459370708,0.015683528658421046,0.031168089782114737,0.012583664187285957,0.007675800637325537,0.10206277466873104
8056,-0.0825,0.0177,9.8815,0.3112,0.7292,2.0867,1.3032,-15.8831,-15.7768,0.005431464632206353,0.01272694090554265,0.036419785501365674,0.03231762371527686,0.016087588780334033,0.08179429813658068
8064,-0.1205,0.0355,9.8567,0.2705,0.4231,2.1985,1.3007,-15.8272,-15.7104,0.004721115626644662,0.007384488065188008,0.03837106360509534,-0.0026731604122541275,0.017873872834908548,0.05748389645569141
8072,-0.1817,-0.0098,9.7796,0.149,0.3837,2.2094,1.3023,-15.7686,-15.6502,0.0026005405854715507,0.006696828339902242,0.038561304493562716,-0.04974764066682714,-0.021587107121376948,-0.018857619937525882
8080,-0.1433,-0.0672,9.7781,0.4141,0.5141,2.2891,1.3032,-15.7144,-15.5878,0.007227408432508519,0.008972737684502848,0.039952331907402196,-0.008287634145608343,-0.0639969012325523,-0.02083203683703516
8088,-0.1272,-0.06,9.8014,0.3263,0.1055,2.4961,1.3042,-15.6604,-15.5257,0.005695009349257497,0.0018413223608540175,0.04356516345903046,0.006054873196727858,-0.04170459400081419,0.0023183923676839413
8096,-0.1131,-0.0384,9.7988,0.1997,0.3253,2.5686,1.3086,-15.6102,-15.4644,0.0034854225162326757,0.005677556056737553,0.04483052716672635,0.009421021397543356,-0.009285068194301352,-0.0004809994640844195
8104,-0.089,-0.063,9.7891,0.348,0.4982,2.526,1.3106,-15.5578,-15.4045,0.006073745796940267,0.00869523033343575,0.04408701690537676,0.023174648085008336,-0.02320043131401385,-0.010347632031413312
8112,-0.1487,-0.0725,9.8004,0.3484,0.3143,2.3812,1.3115,-15.5027,-15.3449,0.006080727113948244,0.005485569839018178,0.041559780148488976,-0.024271540129625825,-0.022899405042028437,0.0017393665404323855
8120,-0.1581,-0.0698,9.7997,0.3301,0.2343,2.2188,1.3135,-15.4432,-15.2808,0.005761331860833282,0.004089306437422714,0.038725365443250184,-0.019909026793831358,-0.01266611321579218,0.0011953832289304245
8128,-0.1529,-0.0737,9.8337,0.3287,0.5366,2.2021,1.3155,-15.384,-15.217,0.005736897251305361,0.009365436766201572,0.03843389545816713,-0.0031273569646949784,-0.004962390228996109,0.03516300751144641
8136,-0.1983,-0.0936,9.782,0.1806,0.8576,2.1782,1.318,-15.3349,-15.1528,0.0031520646291017594,0.01496794366510337,0.038016761766940486,-0.03410338005722839,-0.01856160241099225,-0.015619576264187529
8144,-0.1742,-0.0738,9.7216,0.4097,1.0019,2.1846,1.3141,-15.2912,-15.0993,0.007150613945420769,0.017486453775731187,0.03812846283906812,0.005764770762905549,-0.000951573516052241,-0.0765610763513358
8152,-0.1962,-0.0427,9.7438,0.2554,1.1666,1.9721,1.3132,-15.2418,-15.0408,0.004457570909593518,0.02036101105376585,0.034419638178580174,-0.007095708509047063,0.01602422089830795,-0.05414708477162833
8160,-0.1582,-0.0624,9.7918,0.0893,1.0574,2.1236,1.3116,-15.1846,-14.9814,0.0015585790220309364,0.01845511151058804,0.03706381199535159,0.017820791586380554,-0.0017779212299021087,-0.0067396900529939074
8168,-0.1622,-0.041,9.7992,0.1063,1.2996,1.4524,1.3101,-15.1277,-14.9222,0.0018552849948699724,0.02268229895891831,0.02534916205596564,0.006587149074065992,0.006652514545599059,0.000623594114678383
8176,-0.0632,0.0102,9.8268,0.0053,1.2619,1.2,1.3085,-15.071,-14.8632,9.250245035569947e-05,0.022024309830916446,0.020943951023931952,0.09369561242548291,0.05099306935538972,0.026429532596766947
8184,-0.0989,0.012,9.789,0.0927,1.2446,0.7185,1.3069,-15.0185,-14.7993,0.0016179202165987436,0.021722367870321425,0.012540190675579259,0.0475221515607977,0.04171347313050325,-0.010697275021554375
8192,-0.0511,0.019,9.8308,0.107,1.3133,0.7862,1.3053,-14.9663,-14.7356,0.0018675022996339325,0.02292140906644153,0.013721778579179418,0.08370182632067939,0.041848666892742914,0.03050576233745339
8200,-0.1053,-0.0148,9.7958,-0.266,1.1017,0.5335,1.3061,-14.9137,-14.6767,-0.004642575810304917,0.019228292369221526,0.009311331559389747,0.015597021177811992,0.004024066117504946,-0.003636117935275962
8208,-0.0295,-0.0102,9.796,-0.4894,1.2193,0.3692,1.3067,-14.8613,-14.6181,-0.00854164135926025,0.021280799569566862,0.006443755598363065,0.0774306662212318,0.008266382187348431,-0.004259780452828821
8216,-0.062,-0.0138,9.7688,-0.6417,1.1105,0.2868,1.3074,-14.8092,-14.5597,-0.011199777810047613,0.01938188134339703,0.005005604294719737,0.030617634015911405,0.003742910874372338,-0.03104220343308839
8224,-0.0901,-0.0354,9.7579,-0.7393,0.6757,0.2266,1.3018,-14.7521,-14.5021,-0.012903219159994078,0.011793189755725684,0.003954916085019151,0.0012862311801786817,-0.0016060945717590736,-0.04162004500390637
8232,-0.0167,-0.0257,9.8018,-0.4807,0.564,0.2944,1.3024,-14.6987,-14.4441,-0.008389797714336742,0.009843656981248018,0.005138249317871306,0.060216190849651886,0.00760727967954596,0.0016600002068738462
8240,-0.0127,-0.0388,9.8224,-0.1907,0.4518,0.4739,1.3042,-14.6443,-14.3921,-0.0033283428835531865,0.00788539756051038,0.008271115325201127,0.049431132458742554,-0.0038190891668403977,0.02235971992991992
8248,-0.0095,-0.016,9.7481,-0.4787,0.0672,0.5415,1.306,-14.5902,-14.3403,-0.008354891129296856,0.0011728612573401894,0.009450957899549294,0.037416327846962395,0.014101784000088506,-0.05196424821397727
8256,-0.0344,-0.0259,9.7596,-0.5754,-0.1459,0.4702,1.3049,-14.5409,-14.2858,-0.010042624515975372,-0.002546435378659727,0.008206538142877338,-0.002425657391959824,6.63711566733402e-05,-0.040305310011941486
8264,-0.0154,-0.0371,9.7642,-0.5826,-0.1684,0.7087,1.3061,-14.4935,-14.2292,-0.010168288222118965,-0.002939134460358451,0.012369148408883814,0.003393228889233938,-0.0015980284178239467,-0.0357180938738324
8272,-0.0015,-0.0045,9.7851,-0.4695,-0.1258,1.0994,1.3049,-14.4428,-14.1791,-0.008194320838113377,-0.0021956241990088664,0.019188149796425656,0.009391766710899014,0.018091474824828722,-0.014920081917741967
8280,0.0102,-0.0255,9.7777,-0.22,-0.3412,1.105,1.3038,-14.3924,-14.1291,-0.003839724354387525,-0.005955063407804652,0.019285888234537342,0.005271862667280764,-0.00046887786342840644,-0.02226286057875626
8288,0.0796,-0.0678,9.7432,-0.3654,-0.4004,1.2384,1.3044,-14.3467,-14.0726,-0.0063774330867872805,-0.006988298324985295,0.021614157456697775,0.06089916138726741,-0.03415654580771292,-0.0564891408424657
8296,0.1204,-0.0819,9.7497,0.0769,-0.2918,1.3366,1.306,-14.2995,-14.0151,0.0013421581947836393,-0.005092870757319454,0.023328070782156207,0.08730020750686107,-0.0413566251187279,-0.049691176002266246
8304,0.2012,-0.0755,9.8454,0.0785,-0.3932,1.0972,1.3071,-14.2547,-13.9624,0.0013700834628155487,-0.006862634618841704,0.019149752552881785,0.1517456551327497,-0.030877704470639537,0.04652744237860418
8312,0.2145,-0.0716,9.8855,0.0507,-0.3915,1.0603,1.3104,-14.2068,-13.911,0.0008848819307611251,-0.0068329640215578,0.018505726058895878,0.14866580006755084,-0.02420849117733518,0.08693883306886718
8320,0.2567,-0.0812,9.8289,-0.3225,-0.0726,1.0729,1.3137,-14.159,-13.8597,-0.005628686837681713,-0.001267109036947883,0.01872563754464716,0.17574306535814305,-0.030507722836451836,0.03096878205936804
8328,0.2735,-0.1245,9.7981,-0.3461,0.2217,0.6744,1.317,-14.1114,-13.8087,-0.0060405845411523745,0.0038693949516714287,0.01177050047544976,0.1788288475617416,-0.06771672447204911,0.00084184131682008
8336,0.2909,-0.146,9.8446,-0.3446,0.5245,0.5546,1.313,-14.0606,-13.7562,-0.00601440460237246,0.009154251926710258,0.009679596031560551,0.1823356486819366,-0.08180263130958235,0.04795156419499058
8344,0.2971,-0.1481,9.7996,-0.3539,0.6514,0.5574,1.3089,-14.0101,-13.7038,-0.006176720222807932,0.011369074747491062,0.009728465250616393,0.17562552156557074,-0.07724004479458953,0.003343910710004394
8352,0.2872,-0.1682,9.7994,-0.0614,0.9434,0.888,1.3093,-13.9586,-13.6517,-0.0010716321607245184,0.016465436163314504,0.015498523757709647,0.1536913616650344,-0.08935568719672576,0.0034386807137796183
8360,0.3015,-0.1691,9.7865,0.0929,0.9159,0.9936,1.3098,-13.9074,-13.5997,0.001621410875102732,0.015985470619016066,0.01734159144781566,0.1556494714839977,-0.08289901089028444,-0.008984715259598985
8368,0.3327,-0.1544,9.8076,0.2618,1.0737,1.1958,1.3102,-13.8563,-13.548,0.004569271981721155,0.018739600178663118,0.02087064719534819,0.1731422557610316,-0.062667331591041,0.012728518349074847
8376,0.3536,-0.1639,9.7803,0.218,1.1232,1.6346,1.3061,-13.8083,-13.4981,0.0038048177693476384,0.01960353815840031,0.02852915195309931,0.1814708708714852,-0.06697776207394869,-0.0138492468993352
8384,0.4226,-0.1716,9.8111,-0.0932,0.9946,1.6568,1.3076,-13.7604,-13.4428,-0.0016266468628587153,0.017359044740335602,0.028916615047042054,0.23631878998483136,-0.0690496263656656,0.018610192313310847
8392,0.3525,-0.1745,9.7912,0.0758,0.9623,1.838,1.3058,-13.7194,-13.3994,0.001322959573011702,0.016795303391941435,0.03207915165165578,0.1536441630940455,-0.06655611240384349,-0.0023335586962964783
8400,0.2645,-0.1543,9.7307,0.2242,0.8327,1.9527,1.3039,-13.6786,-13.3562,0.003913028182971287,0.014533356681356783,0.03408104430369328,0.05523368375707377,-0.03902461157660799,-0.06471790085824303
8408,0.2928,-0.1547,9.7576,0.358,0.7674,2.105,1.3021,-13.6335,-13.3048,0.0062482787221397,0.013393656679804484,0.036739180754480634,0.0698996872858077,-0.032596601822152994,-0.03708684944565377
8416,0.2669,-0.1746,9.7765,0.318,0.705,2.304,1.3019,-13.5841,-13.2563,0.005550147021341968,0.012304571226560023,0.04021238596594935,0.034783899632901065,-0.040858076915967184,-0.0184462523647575
8424,0.265,-0.1421,9.7521,0.2691,0.8853,2.1476,1.3006,-13.5389,-13.2075,0.004696681017116741,0.015451399867905799,0.037482691015830225,0.019284029807737014,-0.005017776044155489,-0.043285657142670075
8432,0.2267,-0.1186,9.7123,0.1023,0.5457,2.406,1.2982,-13.4921,-13.1588,0.001785471824790199,0.009524261728133056,0.04199262180298357,-0.006251610551819131,0.006693987818286955,-0.08433500742781952
8440,0.2331,-0.1247,9.7427,0.2415,0.7704,2.6078,1.2958,-13.4455,-13.1104,0.004214970143566306,0.013446016557364314,0.04551469623350813,0.007468030523384556,-0.013162479292150581,-0.0537258417557851
8448,0.227,-0.1352,9.7352,0.5266,0.5905,2.6728,1.2973,-13.3991,-13.0593,0.009190903841002138,0.010306169233026517,0.04664916024730444,0.0014370957089549386,-0.008897100532182702,-0.06121948823375334
8456,0.1683,-0.1105,9.7266,0.8152,0.5518,2.159,1.2932,-13.3545,-13.0012,0.014227924062257775,0.00963072681250471,0.03768165855055757,-0.041486680577143976,0.009994361613840241,-0.07141008840075713
8464,0.152,-0.086,9.7361,0.9205,0.3202,1.9823,1.288,-13.3041,-12.9505,0.0160657557646078,0.005588544264885843,0.03459766176228359,-0.044401302272253966,0.025283986768609455,-0.06246784578507203
8472,0.1154,-0.1042,9.7242,0.9786,0.3413,1.896,1.2828,-13.2538,-12.9001,0.01707979206001651,0.005956808737056647,0.03309144261781249,-0.06450674244895258,0.003945292658080011,-0.07477178906096604
8480,0.0968,-0.067,9.7089,0.9621,0.2362,1.8054,1.2777,-13.2038,-12.8498,0.016791812733437442,0.004122467693210606,0.031510174315505624,-0.06898979855352264,0.032633326342493135,-0.09068622797123993
8488,0.1178,-0.094,9.7274,0.8316,0.3704,1.5348,1.278,-13.16,-12.8024,0.014514158059584845,0.006464699549386997,0.026787313359608968,-0.03198152408830313,0.0030439280080342235,-0.07148564699526005
8496,0.1961,-0.0655,9.7842,0.8109,0.592,1.3214,1.2784,-13.1164,-12.7552,0.014152874904422017,0.01033234917180643,0.023062780735853067,0.033266892066137844,0.022813833060394154,-0.013698965241600192
8504,0.1371,-0.0251,9.7677,0.6924,0.5453,1.2694,1.2754,-13.0762,-12.7043,0.012084659740808738,0.00951728041112508,0.02215520952481602,-0.019208801997583277,0.046925643952027786,-0.031437223630822686
8512,0.1069,0.015,9.761,0.6298,0.4632,1.4169,1.2725,-13.0362,-12.6537,0.010992083629060288,0.008084365095237734,0.024729570171507655,-0.041411871977910415,0.07219484159802886,-0.03875793908859748
8520,0.121,0.0163,9.739,0.6126,0.3341,1.6566,1.2696,-12.9964,-12.6032,0.010691886997717264,0.005831145030913055,0.028913124388538065,-0.021167534323996345,0.05814197128678237,-0.06043126536572352
8528,0.0828,-0.0045,9.7578,0.7001,0.5253,1.7125,1.2683,-12.9474,-12.5523,0.0122190500932123,0.009168214560726213,0.029888763440402893,-0.045349347561501656,0.02771583470236628,-0.0419924062756305
8536,0.0769,-0.0054,9.7816,0.6131,0.5802,1.9527,1.2692,-12.9035,-12.5022,0.010700613643977234,0.0101264003200711,0.03408104430369328,-0.0368579366849048,0.018783751595305195,-0.01818370683750281
8544,0.0857,0.0019,9.7882,0.706,0.5393,2.3263,1.2673,-12.8587,-12.4566,0.012322024519079966,0.009412560656005419,0.04060159438914408,-0.016016758677041675,0.014648082138852443,-0.011448716120902702
8552,0.0727,-0.0375,9.8306,0.7734,0.4602,2.6569,1.2655,-12.8141,-12.4112,0.013498376434924145,0.008032005217677905,0.04637165289623734,-0.016293251793353714,-0.015643682370205216,0.03091438804895219
8560,0.1311,-0.075,9.8334,0.8699,0.3339,2.6985,1.2614,-12.7685,-12.3655,0.015182619163098673,0.005827654372409066,0.047097709865066985,0.03320119767736911,-0.04118456168673276,0.03441758734859768
8568,0.1083,-0.0684,9.8418,0.7915,0.0958,2.9888,1.2601,-12.7221,-12.3128,0.013814281029535119,0.0016720254234105676,0.05216440068360652,0.0059684914640159275,-0.020846688907369074,0.04260963782833471
8576,0.1401,-0.0842,9.8586,0.7219,0.0601,3.0051,1.255,-12.6758,-12.263,0.012599531870147064,0.001048942880448592,0.0524488893516816,0.026552522837484948,-0.026104988555168913,0.05988463944195743
8584,0.2267,-0.1127,9.8651,0.8126,-0.3661,3.0768,1.2559,-12.6302,-12.2183,0.014182545501705921,-0.00638965039155124,0.05370029042536153,0.09879467672054304,-0.04746187024284289,0.06773931418563173
8592,0.168,-0.1134,9.8396,1.3074,-0.3042,2.9959,1.2568,-12.5849,-12.1737,0.022818434640573863,-0.005309291584566751,0.05228831906049811,0.03012866142510409,-0.03888647187000045,0.04156450093511488
8600,0.1526,-0.0981,9.8561,1.3005,-0.2265,2.7986,1.2571,-12.5391,-12.1299,0.022698006922186254,-0.003953170755767157,0.04884478444631331,0.005877877264011253,-0.011950396016356397,0.05776040582210129
8608,0.1998,-0.0738,9.8606,1.0086,0.0106,2.6926,1.2542,-12.4958,-12.0792,0.017603390835614807,0.00018500490071139895,0.04699473543919932,0.03733018528563975,0.008064268233726185,0.06282618040307852
8616,0.175,-0.1028,9.7999,1.0282,0.1866,2.8045,1.2485,-12.458,-12.0297,0.017945475369005696,0.0032567843842214186,0.048947758872180974,0.005905295078002899,-0.010015512416490933,0.0019945759524411244
8624,0.1772,-0.0862,9.833,0.8389,0.4696,2.6956,1.2429,-12.4203,-11.9804,0.014641567094980431,0.008196066167365372,0.04704709531675915,-0.003436500704396846,-0.005041859556215156,0.03497239701846411
8632,0.2138,-0.0676,9.8529,0.7405,0.6842,2.5007,1.2372,-12.3829,-11.9313,0.012924163111018011,0.011941542742145204,0.0436454486046222,0.019006189700800778,0.0070806703057868185,0.055430342651764164
8640,0.2328,-0.064,9.864,0.9237,0.6228,2.4024,1.2387,-12.3379,-11.8829,0.016121606300671623,0.010869910581420684,0.041929789949911776,0.023474235348514658,0.005481979204725447,0.06692488813910025
8648,0.1762,-0.113,9.7785,0.9177,0.412,2.3137,1.2401,-12.2932,-11.8347,0.016016886545551962,0.0071907565182166375,0.0403816829033928,-0.020977686628520672,-0.03337684617629372,-0.019339305915831773
8656,0.187,-0.1233,9.7229,0.8052,0.2692,2.5462,1.2388,-12.2459,-11.792,0.014053391137058342,0.004698426346368735,0.044439573414279614,-0.005342373226835046,-0.029654531212282474,-0.07456693160521333
8664,0.2081,-0.1362,9.7437,0.9696,0.2339,2.7793,1.2375,-12.1988,-11.7496,0.01692271242733702,0.004082325120414737,0.0485079359006784,0.010552987953279679,-0.028544735989956903,-0.05317387184461353
8672,0.2162,-0.1638,9.7133,0.9242,0.1788,2.8447,1.2362,-12.1518,-11.7072,0.016130332946931593,0.003120648702565861,0.049649381231482693,0.01500693287310071,-0.04279278527421244,-0.08301933008538853
8680,0.1835,-0.1629,9.7077,0.9074,0.0088,2.7767,1.2333,-12.1137,-11.6645,0.015837117632596546,0.000153588974175501,0.04846255734012655,-0.011562860519507069,-0.029450246507809506,-0.08925095920828419
8688,0.1398,-0.1524,9.7021,0.926,-0.2044,2.9783,1.2315,-12.0704,-11.6203,0.016161748873467493,-0.0035674529910764098,0.05198114111214711,-0.04094118758543734,-0.015906885312323087,-0.09579549884903038
8696,0.1618,-0.0756,9.7281,0.9279,0.229,2.8511,1.2312,-12.0288,-11.5752,0.016194910129255384,0.003996803987067015,0.049761082303610336,-0.015716247072497382,0.045801152389162526,-0.07038132997917756
8704,0.1825,-0.0438,9.7889,0.8256,0.4728,2.9935,1.231,-11.9874,-11.5303,0.014409438304465184,0.00825191670342919,0.052246431158450256,0.0032119253699934187,0.062106594214534794,-0.009498462566359223
8712,0.2082,-0.0839,9.7852,0.8611,0.2766,3.1669,1.2297,-11.9483,-11.478,0.015029030188923171,0.004827580711016316,0.05527283208140842,0.01782915402218923,0.012055749567723,-0.012249376380230714
8720,0.2022,-0.0564,9.7923,0.9218,0.2143,3.2128,1.23,-11.9104,-11.4275,0.01608844504488373,0.003740240587023848,0.05607393820807382,0.007178041677913472,0.023220893447030336,-0.005480391779025595
8728,0.1809,-0.0356,9.8115,0.7691,0.3441,3.1473,1.2319,-11.8722,-11.3858,0.01342332727708839,0.006005677956112488,0.054930747548017536,-0.009376863462959484,0.027845546194576007,0.01318812211346021
8736,0.1807,-0.0354,9.8148,0.7271,0.3669,3.1274,1.2376,-11.8319,-11.3437,0.01269028899125077,0.006403613025567195,0.05458342702687066,-0.003996966075473245,0.012305892560397274,0.016518592620831996
8744,0.2575,-0.007,9.8615,0.6737,0.1913,2.999,1.2432,-11.7918,-11.3017,0.011758283170685798,0.003338814859065152,0.052342424267309944,0.05795081707127809,0.03384697399892361,0.06463550189016765
8752,0.2086,-0.0174,9.8527,0.5985,0.2768,2.9562,1.244,-11.7524,-11.2513,0.010445795573186064,0.004831071369520304,0.05159542334745637,0.0037119205705148247,0.0069766550980695525,0.054920170043454064
8760,0.1766,0.0061,9.8702,0.276,0.3211,2.6566,1.2436,-11.7093,-11.2075,0.00481710873550435,0.005604252228153792,0.04636641690848136,-0.0177017822694635,0.01813580011921088,0.07174911298188036
8768,0.1381,0.0365,9.8642,0.4636,0.0196,2.4875,1.2439,-11.6697,-11.1634,0.008091346412245713,0.00034208453339088857,0.043415065143358945,-0.04470763753634153,0.03681956850086754,0.0650641683934996
8776,0.1812,-0.0062,9.8843,0.4189,0.2459,2.2244,1.2441,-11.6302,-11.1194,0.007311184236604247,0.004291764630654057,0.03882310388136187,0.0023688499163468995,0.010286250904313718,0.08595705794802555
8784,0.2529,-0.0417,9.9262,0.2243,0.121,2.4448,1.2443,-11.5908,-11.0756,0.003914773512223281,0.0021118483949131386,0.042669809552757364,0.05924158116546054,-0.018730411669836345,0.12931434424047517
8792,0.1539,-0.0469,9.8352,0.3714,0.2788,2.4423,1.2477,-11.5522,-11.0324,0.00648215284190694,0.004865977954560191,0.04262617632145751,-0.0245251015474617,-0.018083208144199964,0.03646864362293911
8800,0.1718,-0.0265,9.8448,0.3575,0.1311,2.3732,1.251,-11.5137,-10.9894,0.006239552075879728,0.0022881266493645657,0.04142015380832943,0.007548873999693156,-0.0032396393400999112,0.046331146637220044
8808,0.167,-0.0495,9.8126,0.3975,0.1339,2.5044,1.2464,-11.47,-10.9439,0.00693768377667746,0.002336995868420407,0.04371002578694599,0.0018277286671059742,-0.011373112869452952,0.014139051476272257
8816,0.1996,-0.0394,9.8207,0.4438,0.1925,2.7046,1.2418,-11.4264,-10.8986,0.007745771220350834,0.0033597588100890844,0.04720417494943864,0.018574594052671655,-0.0007123974396325719,0.02278959801876468
8824,0.2099,-0.0425,9.7767,0.5867,0.2432,2.7307,1.2372,-11.3831,-10.8534,0.010239846721450731,0.004244640740850209,0.04765970588420916,0.014614972334972129,-0.0024692906065052196,-0.02096592422403276
8832,0.2379,-0.0103,9.7677,0.462,0.2997,2.9263,1.2357,-11.3446,-10.8153,0.008063421144213804,0.005230751768227006,0.05107356990111006,0.02965668488814936,0.020761625484170276,-0.029464946792899127
8840,0.2146,-0.0066,9.7528,0.4735,0.2338,3.1107,1.2312,-11.3127,-10.7704,0.00826413400819315,0.004080579791162743,0.05429195704178761,0.002754379232251836,0.008165710257319088,-0.04484083704571162
8848,0.238,-0.0571,9.7917,0.4017,0.5147,2.9537,1.2319,-11.2751,-10.7283,0.007010987605261222,0.008983209660014814,0.051551790116156515,0.01903156278894914,-0.028847854205507825,-0.005302511004970256
8856,0.2743,-0.1018,9.7805,0.1758,0.6313,2.9662,1.2326,-11.2377,-10.6864,0.0030682888250060316,0.011018263567840202,0.05176995627265581,0.048129314573967005,-0.06025971070307143,-0.01542865955055639
8864,0.1614,-0.1227,9.7265,0.0291,0.2442,2.9329,1.2296,-11.2019,-10.642,0.0005078908123303499,0.004262094033370153,0.05118876163174169,-0.05314996413647951,-0.07220413577002596,-0.0718003133113072
8872,0.1453,-0.1106,9.7233,0.2835,0.3407,2.8717,1.2293,-11.1621,-10.6004,0.004948008429403924,0.005946336761544681,0.05012062012952116,-0.05729532616701194,-0.05070484580488598,-0.0752864513029845
8880,0.1608,-0.0869,9.7322,0.2174,0.5316,2.7385,1.2289,-11.1224,-10.5563,0.0037943457938356727,0.009278170303601856,0.047795841565864715,-0.028732870783522095,-0.018488250198542656,-0.06614373967125253
8888,0.1384,-0.0559,9.7302,0.1835,0.3995,2.6244,1.227,-11.0844,-10.5124,0.0032026791774095948,0.006972590361717347,0.045804420889339184,-0.03629895811720267,0.008163929134615146,-0.06872633485725643
8896,0.089,-0.0083,9.7599,0.2552,0.5852,2.278,1.225,-11.0466,-10.4686,0.0044540802510895285,0.010213666782670817,0.03975860036043083,-0.07363350978053974,0.04583235435140244,-0.040076055545720024
8904,0.021,-0.0526,9.7175,0.225,0.8107,1.8028,1.2294,-11.0115,-10.426,0.003926990816987242,0.01414938424591803,0.03146479575495377,-0.12279491525126625,-0.0010213221423374496,-0.08311086943514034
8912,0.0328,-0.0172,9.7784,0.1855,0.7944,1.4923,1.2338,-10.9766,-10.3836,0.0032375857624494814,0.013864895577842954,0.02604554842751138,-0.0970235511657521,0.030218690651527363,-0.02205791072301011
8920,-0.0175,0.0086,9.8081,0.2197,0.9255,1.0328,1.2366,-10.9382,-10.3434,0.003834488366631542,0.01615302222720752,0.018025760514597436,-0.1325247188684135,0.04883891288544015,0.007102415060066036
8928,-0.0184,0.0223,9.7984,0.455,0.7682,0.8893,1.2393,-10.8998,-10.3034,0.0079412480965742,0.01340761931382044,0.015521213037985572,-0.11848901799982957,0.055240812898142845,-0.0024295248666987845
8936,-0.0643,0.0607,9.7742,0.3655,0.6791,0.8188,1.2421,-10.8616,-10.2635,0.006379178416039274,0.011852530950293493,0.01429075591532957,-0.15077958965276214,0.08395063833542582,-0.026923594606087065
8944,-0.0498,0.0293,9.7724,0.3465,0.9219,0.618,1.2406,-10.8226,-10.2275,0.006047565858160351,0.016090190374135727,0.010786134777324957,-0.11941351528978403,0.04689877425407393,-0.02827132962956469
8952,-0.0362,0.0165,9.7338,0.4909,1.1194,0.6687,1.2391,-10.7836,-10.1915,0.008567821298040163,0.019537215646824525,0.01167101670808608,-0.08878949515259285,0.02900746824117438,-0.0665668892041591
8960,-0.0399,0.0208,9.7317,0.5011,1.3802,0.4638,1.2403,-10.7474,-10.152,0.008745844881743585,0.024089034336025737,0.0080948370707497,-0.07606638381034041,0.02730852974187712,-0.06853157588962233
8968,-0.0009,0.0206,9.7015,0.2282,1.043,0.5666,1.2414,-10.7114,-10.1127,0.00398284135305106,0.018203784098300854,0.009889035541799871,-0.023238525270650727,0.018667470946072174,-0.0985238795082477
8976,-0.0166,0.0477,9.7139,0.4152,1.0779,0.7342,1.2425,-10.6755,-10.0735,0.007246607054280456,0.01881290400724688,0.012814207368142367,-0.028108753466735636,0.033052772935986616,-0.08606560284763987
8984,0.0052,0.0673,9.7159,0.4393,1.1006,0.6998,1.2394,-10.635,-10.0376,0.00766723140401109,0.019209093747449592,0.012213814105456317,-0.0034561401747619453,0.0374085800765197,-0.0839381541062778
8992,0.0081,0.1009,9.7274,0.6518,1.0903,0.8135,1.2374,-10.5999,-9.9981,0.01137605606449904,0.019029324834494175,0.014198253464973871,0.00017846188079990606,0.05465813040433028,-0.0722268921951077
9000,0.0348,0.1377,9.7382,0.5563,1.0777,1.157,1.2385,-10.5602,-9.9567,0.009709266628844455,0.018809413348742893,0.020193459445574394,0.022922091322917067,0.07656785772076283,-0.06109228347996698
9008,0.0786,0.1446,9.7516,0.5902,0.8258,1.5894,1.2396,-10.5207,-9.9154,0.010300933245270531,0.014412928962969173,0.027740263131197873,0.05795391520601647,0.07182359053584793,-0.047447903468814445
9016,0.1036,0.1226,9.7942,0.6227,0.6408,1.931,1.2407,-10.4855,-9.8769,0.010868165252168691,0.011184069846779665,0.033702307856010506,0.07106663132442606,0.041476926791825505,-0.00483044769228691
9024,0.1536,0.059,9.8096,0.9472,0.6639,1.9509,1.2403,-10.4457,-9.8343,0.01653175867489029,0.011587240903990355,0.03404962837715737,0.10862634758786023,-0.019152433098153464,0.010359810981253048
9032,0.1036,0.0114,9.7721,1.076,0.558,2.0979,1.2398,-10.4061,-9.7966,0.018779742751458987,0.00973893722612836,0.03661526237758904,0.05089373534185761,-0.05784860954221492,-0.027647944528554902
9040,0.0616,-0.0161,9.7809,0.7753,0.2941,2.1186,1.2404,-10.3692,-9.7564,0.013531537690712038,0.005133013330115323,0.03697654553275186,0.008512059804248465,-0.07233705081254996,-0.01916396845762236
9048,0.0942,-0.0347,9.7893,0.813,0.0924,2.2503,1.2409,-10.3325,-9.7164,0.014189526818713898,0.0016126842288427604,0.0392751441576284,0.03527820274895938,-0.07670137755276364,-0.010549322505765346
9056,0.1105,-0.0565,9.7674,0.8945,0.0889,2.6616,1.2425,-10.2959,-9.6754,0.015611970159089278,0.0015515977050229591,0.04645368337108107,0.045269343603634334,-0.08521206869508455,-0.03228814666001689
9064,0.0896,-0.0457,9.7958,0.7457,0.2561,2.4975,1.2441,-10.2594,-9.6346,0.013014920232121715,0.004469788214357478,0.04358959806855838,0.019474203454534107,-0.06129573451616718,-0.003894759735890929
9072,0.1359,-0.0683,9.826,0.5474,0.4587,2.618,1.2472,-10.2257,-9.595,0.00955393232541696,0.00800582527889799,0.04569271981721155,0.05714806448419599,-0.07070422068209857,0.02675657131606357
9080,0.1378,-0.05,9.8475,0.3204,0.6152,3.0719,1.2504,-10.1921,-9.5555,0.0055920349233898325,0.010737265558269114,0.05361476929201381,0.04736555602070698,-0.04217680775793499,0.048386807543161936
9088,0.143,-0.0507,9.8523,0.2767,0.2234,3.2286,1.2535,-10.1586,-9.5162,0.00482932604026831,0.003899065548955332,0.05634970022988892,0.040647072550084574,-0.03304985987299183,0.053328894452647546
9096,0.2125,-0.045,9.8776,0.3976,0.1608,3.5464,1.2487,-10.1253,-9.4811,0.006939429105929454,0.002806489437206882,0.06189635659272691,0.09445566147415989,-0.021678915634974164,0.07951269864219235
9104,0.1469,-0.0208,9.8578,0.0865,0.2476,3.7917,1.244,-10.092,-9.4462,0.001509709802975095,0.0043214352279379595,0.066177649247869,0.012810647037846817,-3.97744182466531e-05,0.05890810261158741
9112,0.18,-0.0343,9.8019,0.2824,-0.1814,3.8716,1.2435,-10.0605,-9.4088,0.004928809807631987,-0.003166027263117714,0.06757216732021246,0.03177526002882664,-0.00867328754551886,0.0035572730990462986
9120,0.1658,-0.0288,9.8293,0.2297,-0.5357,4.0653,1.2419,-10.0228,-9.3747,0.004009021291830975,-0.009349728802933622,0.07095287008132548,0.0008769025548563542,-0.0005981011317835511,0.030740381238684833
9128,0.2208,-0.0671,9.8345,0.1313,-0.3438,4.2505,1.2404,-9.9853,-9.3407,0.0022916173078685546,-0.006000441968356505,0.07418521985601897,0.04357116719852634,-0.02825975429622296,0.03707010444045089
9136,0.1307,-0.0353,9.8014,0.0745,-0.4642,4.3424,1.2414,-9.9479,-9.3016,0.0013002702927357754,-0.008101818387757679,0.07578917743860177,-0.03204612134610372,-0.0001832274785303486,0.0022825684905818378
9144,0.129,-0.027,9.7537,0.0443,-0.5634,4.3715,1.2414,-9.9122,-9.2641,0.0007731808586334879,-0.009833185005736053,0.07629706825093212,-0.018851704866951407,0.004286230108169052,-0.04542876742113933
9152,0.1861,-0.0463,9.747,0.13,-0.3143,4.6953,1.2414,-9.8751,-9.2253,0.0022689280275926286,-0.005485569839018178,0.08194844436888975,0.02385995099578686,-0.00792457251669561,-0.05114602612753849
9160,0.1909,-0.0374,9.7687,0.0999,-0.1454,5.2077,1.2413,-9.8396,-9.1892,0.0017435839227423352,-0.002537708732399755,0.0908915114561087,0.012130969695395736,0.0005349349026209567,-0.029370858874086636
9168,0.1478,-0.0188,9.7373,0.0765,-0.1199,5.3857,1.2413,-9.8043,-9.1532,0.001335176877775662,-0.002092649773141201,0.0939981975246586,-0.017644426620936245,0.009658170250166515,-0.061580982317684274
9176,0.1244,-0.0599,9.718,0.4302,-0.4022,5.5665,1.2439,-9.7692,-9.1086,0.007508406442079606,-0.0070197142515211934,0.09715375281226435,-0.027445231961202975,-0.023007179824928472,-0.08108520466821467
9184,0.1483,-0.0729,9.757,0.3203,-0.4428,5.9367,1.249,-9.7341,-9.0692,0.005590289594137837,-0.007728317927830891,0.10361496170314737,-0.0025371681512714075,-0.019616792150339655,-0.04162077780108575
9192,0.2181,-0.1266,9.7859,0.3646,-0.4363,6.2855,1.2515,-9.7002,-9.0259,0.006363470452771325,-0.00761487152645126,0.10970267013410358,0.05766766308773885,-0.059164104815940075,-0.011199867739900782
9200,0.1953,-0.1228,9.7565,0.3803,-0.5527,6.4403,1.2581,-9.6675,-8.9874,0.0066374871453344355,-0.009646434775772659,0.1124044398161908,0.02633843660425167,-0.043712594453836656,-0.04090630868607015
9208,0.2784,-0.1212,9.7678,0.1874,-0.5787,6.863,1.2648,-9.6349,-8.949,0.003270747018237374,-0.010100220381291184,0.11978194656437084,0.09362613343958949,-0.03299535938928695,-0.027985965350035613
9216,0.2626,-0.2213,9.7037,0.3495,-0.4436,7.2406,1.2713,-9.6024,-8.9108,0.006099925735720182,-0.007742280561846846,0.1263723098199014,0.0752797592408834,-0.12128597604452795,-0.0912746042611996
9224,0.3107,-0.2122,9.76,0.6965,-0.3917,7.3483,1.2779,-9.5675,-8.8753,0.012156218240140505,-0.006836454680061789,0.1282520294242993,0.10981000029385078,-0.09954793403082739,-0.033875113297717974
9232,0.1957,-0.1743,9.7199,0.671,-0.4407,7.4993,1.2844,-9.5326,-8.8399,0.011711159280881952,-0.00769166601353901,0.13088747659481076,-0.005050154607056145,-0.05308481897744164,-0.07671395628347355
9240,0.2815,-0.1801,9.7118,0.5453,-0.4183,7.4117,1.2909,-9.4979,-8.8046,0.00951728041112508,-0.007300712261092281,0.12935856817006372,0.06783392508471318,-0.0463760307343719,-0.0827995120826639
9248,0.3023,-0.1584,9.6976,0.6678,-0.6609,7.5066,1.2917,-9.469,-8.7689,0.011655308744818132,-0.011534881026430525,0.13101488563020633,0.0721216985478892,-0.020368242121462578,-0.09668586485465624
9256,0.3265,-0.1602,9.7295,0.5716,-0.5995,7.4853,1.2925,-9.4402,-8.7333,0.009976302004399588,-0.010463248865706007,0.13064313049953155,0.07974321885119046,-0.017692180150565492,-0.06404783568608785
9264,0.3121,-0.1186,9.756,0.4689,-0.4981,7.377,1.2989,-9.4069,-8.701,0.008183848862601411,-0.008693485004183755,0.1287529389196217,0.047274014544789196,0.017565344748598468,-0.0384189294862356
9272,0.2466,-0.0691,9.7454,0.3174,-0.4118,7.2815,1.3048,-9.3773,-8.6641,0.005539675045830002,-0.007187265859712649,0.1270861494839671,-0.01618555418296276,0.04819552842917134,-0.05136816015317969
9280,0.2479,-0.0649,9.7308,0.1298,-0.3267,6.8967,1.3107,-9.3478,-8.6274,0.0022654373690886398,-0.005701990666265475,0.12037012252229293,-0.010882425452340373,0.037361361569380636,-0.0659042144902866
9288,0.1803,-0.0355,9.7495,0.3291,-0.6452,6.5795,1.316,-9.3174,-8.5903,0.005743878568313338,-0.011260864333867414,0.11483393813496692,-0.06906859010688289,0.053077233626378374,-0.049157424759068036
9296,0.1068,-0.0459,9.7627,-0.0563,-0.6219,6.4041,1.3182,-9.2906,-8.5563,-0.0009826203688728075,-0.010854202618152736,0.11177263062696885,-0.12790263923252285,0.03457623449771408,-0.037506991608889706
9304,0.0112,0.0067,9.782,0.1271,-0.5142,5.8898,1.3204,-9.2584,-8.5226,0.002218313479284793,-0.008974483013754843,0.10279640228396203,-0.2128474473374868,0.07609585709448728,-0.020603305178026332
9312,-0.0006,0.0015,9.7999,0.0626,-0.3259,5.3126,1.3232,-9.2216,-8.4894,0.0010925761117484504,-0.00568802803224952,0.09272236184145075,-0.2102067411471713,0.06553797412882503,-0.0025737808379826532
9320,0.0014,0.0081,9.7865,0.4755,-0.4391,4.8699,1.3259,-9.1849,-8.4563,0.008299040593233036,-0.007663740745507101,0.08499578924287186,-0.19409827186909454,0.06635762226255465,-0.015646554481739017
9328,-0.0049,0.0419,9.8313,0.5637,-0.3288,4.6973,1.3321,-9.15,-8.4224,0.009838420993492036,-0.005738642580557355,0.08198335095392964,-0.1896614097372855,0.09223736427562872,0.02912814690539811
9336,-0.0817,0.0288,9.8104,0.448,-0.0233,4.423,1.3343,-9.1197,-8.3865,0.007819075048934596,-0.0004066617157146788,0.0771959128157092,-0.2500072364821912,0.06940956911839016,0.0073508749009949526
9344,-0.1038,0.0397,9.8237,0.4254,-0.0964,3.8886,1.338,-9.0866,-8.3492,0.007424630637983878,-0.0016824973989225337,0.0678688732930515,-0.25798868863844554,0.07396006003459975,0.020662094077684046
9352,-0.0573,0.0714,9.8358,0.1984,-0.1397,3.7162,1.3401,-9.054,-8.3084,0.0034627332359567498,-0.002438224965036078,0.06485992566261328,-0.19995059186958414,0.10114048380356754,0.03367343637905229
9360,-0.0303,0.0887,9.8404,0.1254,-0.2371,3.3941,1.3422,-9.0215,-8.2678,0.0021886428820008896,-0.0041381756564785556,0.05923822014193954,-0.16156678084781098,0.11099240137704018,0.03889398266710842
9368,-0.0614,0.0961,9.8769,-0.0324,-0.1809,3.2967,1.3443,-8.9892,-8.2273,-0.0005654866776461627,-0.0031573006168577424,0.05753826945049706,-0.18029638670245637,0.10833294910788517,0.07531852474033407
9376,-0.1378,0.0719,9.8785,0.134,-0.1272,3.5155,1.35,-8.9595,-8.1937,0.0023387411976724015,-0.0022200588085367874,0.06135704985386065,-0.24009788906041635,0.07431278168001254,0.07652526520069713
9384,-0.136,0.0546,9.8931,0.0691,-0.1878,3.4395,1.3556,-8.93,-8.1601,0.0012060225131280816,-0.0032777283352453507,0.060030599622344964,-0.22221369164563337,0.053301015957827415,0.09154613025400948
9392,-0.1853,0.0616,9.9023,0.0017,-0.1631,3.2228,1.3566,-8.8934,-8.1271,2.96705972839036e-05,-0.002846632010002751,0.05624847113327325,-0.2566860686413986,0.05371840726355086,0.10075262466881796
9400,-0.2039,0.0625,9.87,0.052,0.2525,3.3729,1.3576,-8.8569,-8.0943,0.0009075712110370514,0.004406956361285682,0.058868210340516744,-0.2592550478911436,0.05022760553484555,0.06877122380416623
9408,-0.2895,0.083,9.901,0.1293,0.1219,2.9964,1.3586,-8.8206,-8.0616,0.002256710722828668,0.0021275563581810877,0.05229704570675809,-0.3304669804798557,0.06180227390962322,0.09987233775022553
9416,-0.2646,0.1037,9.9189,0.2833,0.3544,2.8364,1.3622,-8.7921,-8.0264,0.004944517770899936,0.006185446869067903,0.04950451890356716,-0.291282057823959,0.0794590557944101,0.11837613126473912
9424,-0.2629,0.0719,9.891,-0.0014,0.1501,3.0968,1.3647,-8.7611,-7.9904,-2.4434609527920612e-05,0.0026197392072434887,0.0540493562757604,-0.27160226845220586,0.04516666717967033,0.09092307117730414
9432,-0.1585,0.0883,9.9245,0.0356,0.2507,2.799,1.3693,-8.7302,-7.9545,0.0006213372137099813,0.004375540434749784,0.04885176576332128,-0.15353395611666745,0.06248113415024641,0.1247741950230008
9440,-0.0963,0.1076,9.8797,0.111,0.6748,2.941,1.3738,-8.6923,-7.9227,0.0019373154697137059,0.011777481792457734,0.05133013330115323,-0.08034234042804607,0.07515497025933932,0.08014273068865307
9448,-0.092,0.126,9.8559,0.0418,0.6858,3.2394,1.3788,-8.6591,-7.8906,0.0007295476273336297,0.011969468010177111,0.05653819578910431,-0.0664417796251098,0.08166305957173534,0.056572499840987334
9456,-0.109,0.068,9.8272,-0.147,0.8056,3.3141,1.3807,-8.623,-7.8555,-0.0025656340004316645,0.014060372454066319,0.05784195674034407,-0.06333296786604653,0.018646189615851086,0.02781797220492166
9464,-0.0334,0.0328,9.8371,0.0777,0.8722,3.2442,1.3867,-8.5941,-7.8211,0.0013561208287995942,0.015222761735894541,0.056621971593200045,0.0033116405348609886,-0.0016866281977086593,0.03721068181027931
9472,0.0142,0.0073,9.8225,0.3993,0.6852,3.3747,1.3927,-8.5653,-7.7868,0.006969099703213358,0.011958996034665147,0.058899626267052634,0.039167770362423714,-0.017759157360341657,0.02241883031337011
9480,-0.0121,0.0339,9.826,0.6455,0.3811,3.1768,1.3956,-8.5346,-7.7505,0.011266100321623397,0.00665144977935039,0.05544561967735586,-0.001685182043035874,-0.002265732293952942,0.026065522202600278
9488,0.0558,0.0725,9.8835,0.3556,0.5596,3.2436,1.3954,-8.506,-7.7129,0.0062063908200918365,0.009766862494160268,0.05661149961768807,0.0508727772020731,0.031849635142215574,0.08374117939563597
9496,0.0903,0.0683,9.8512,0.3957,0.6422,3.1901,1.4008,-8.473,-7.6769,0.006906267850141562,0.011208504456307585,0.05567774846787111,0.07161090418288467,0.024558411466898557,0.05155973350556842
9504,0.0809,0.0663,9.7992,-0.0086,0.5853,3.4136,1.4042,-8.4391,-7.6456,-0.00015009831567151235,0.010215412111922811,0.05957855934607844,0.04843888382544153,0.017015342633234534,-0.0003762678024816779
9512,0.042,0.0745,9.7736,-0.2966,0.6482,3.4861,1.4075,-8.4053,-7.6144,-0.005176646561415181,0.011313224211427244,0.06084392305377432,0.004073968865190445,0.008526762612489984,-0.02603039154013942
9520,0.0691,0.0897,9.7503,-0.4467,0.6017,3.214,1.4109,-8.3716,-7.5834,-0.00779638576865867,0.010501646109249882,0.056094882159097754,0.018972913000602748,0.01634601398226493,-0.04907471947409903
9528,0.0905,0.0784,9.8086,-0.2755,0.6718,3.0925,1.4157,-8.3396,-7.5534,-0.004808382089244378,0.011725121914897906,0.053974307117924634,0.026216800048554097,0.004304330412371909,0.009294822877681241
9536,0.0953,0.0723,9.809,-0.4291,0.443,3.1016,1.4205,-8.3076,-7.5235,-0.007489207820307668,0.00773180858633488,0.05413313207985612,0.0162987823057926,-5.1091228612382676e-05,0.009715833146493935
9544,0.0882,0.0253,9.7851,-0.3067,0.4694,2.9157,1.4213,-8.2783,-7.4928,-0.005352924815866608,0.008192575508861382,0.05088856500039867,0.00934644605945022,-0.03164761210736708,-0.014525437537843189
9552,0.1415,-0.0182,9.8246,-0.5683,0.2494,2.8819,1.422,-8.2491,-7.4621,-0.009918706139083775,0.004352851154473858,0.05029864371322458,0.05507656952440468,-0.058885912747464714,0.025304965789578304
9560,0.2084,-0.0525,9.7924,-0.5865,0.4683,2.8255,1.4227,-8.2201,-7.4315,-0.010236356062946744,0.008173376887089445,0.04931427801509978,0.1124223925786108,-0.07796994786244832,-0.006197548302436573
9568,0.1518,-0.0357,9.8225,-0.6705,0.4989,2.6383,1.4295,-8.1906,-7.3965,-0.011702432634621979,0.00870744763819971,0.0460470216553664,0.04500354823693648,-0.052471049993819414,0.02349456403161021
9576,0.1708,-0.0897,9.7774,-0.4735,0.8669,2.414,1.4272,-8.1572,-7.3632,-0.00826413400819315,0.015130259285538843,0.04213224814314312,0.061112250220938046,-0.09087044755523584,-0.02131003944628418
9584,0.2276,-0.0639,9.777,-0.4398,1.2642,1.9061,1.4315,-8.1289,-7.3299,-0.007675958050271062,0.022064452403712315,0.033267720872263914,0.10363331471448936,-0.052776118555420554,-0.02083394213026679
9592,0.1815,0.0974,9.6661,-0.2983,1.188,1.2285,1.4357,-8.1008,-7.2968,-0.005206317158699085,0.020734511513692634,0.021441369860750337,0.04209132905168105,0.09106254957731443,-0.1322259980860565
9600,0.1631,0.1132,9.6481,-0.2403,1.0192,1.0951,1.4384,-8.0692,-7.2673,-0.004194026192542374,0.01778839573632621,0.0191131006385899,0.02085326349295821,0.09081346702688133,-0.15030738750667716
9608,0.1682,0.1698,9.6537,-0.0488,1.0205,0.5036,1.4401,-8.0387,-7.2394,-0.0008517206749732328,0.017811085016602134,0.008789478113043444,0.020663948993819195,0.13251315184381632,-0.1442731896661229
9616,0.1173,0.1672,9.6328,-0.311,1.2083,0.1087,1.4422,-8.0063,-7.2071,-0.005427973973702365,0.021088813351847483,0.0018971728969178364,-0.024487022536259284,0.11167935101281992,-0.16571335913838148
9624,0.0767,0.2146,9.6954,-0.4524,1.1906,-0.6397,1.4394,-7.9806,-7.1739,-0.007895869536022348,0.020779890074244488,-0.011164871225007728,-0.061516778079640476,0.14198838335909109,-0.10315658603245481
9632,0.1375,0.1859,9.6978,-0.385,1.5097,-1.4753,1.4365,-7.955,-7.1407,-0.006719517620178169,0.026349235717358394,-0.025748842454672346,0.003133048333927397,0.10312149102639516,-0.099992472059796
9640,0.1779,0.17,9.7461,-0.6832,1.1562,-2.0504,1.4392,-7.9249,-7.1083,-0.01192408944962526,0.020179496811558437,-0.03578623098289173,0.0387148635917359,0.07687272094522732,-0.05117415459115193
9648,0.1657,0.1165,9.6977,-0.4963,1.1114,-2.3951,1.4393,-7.8975,-7.0759,-0.008662069077647858,0.019397589306664978,-0.041802380914516185,0.020255889281586146,0.014631767809353026,-0.1002170312774453
9656,0.1419,0.1313,9.7163,-0.411,1.1166,-3.3593,1.439,-7.8656,-7.0441,-0.007173303225696694,0.019488346427768685,-0.058630845562245515,-0.0006075970027314932,0.012675793627148942,-0.08178514617618582
9664,0.1837,0.1087,9.73,-0.468,1.303,-3.9426,1.4386,-7.8339,-7.0125,-0.008168140899333463,0.022741640153486113,-0.06881135108912843,0.028997988226470112,-0.0037423882606637568,-0.06770291805634798
9672,0.1923,0.0788,9.6759,-0.4825,1.3691,-4.3378,1.4383,-7.8022,-6.9809,-0.00842121364087264,0.023895302789054367,-0.07570889229301002,0.030338849569560226,-0.02191735712783739,-0.12194085967318813
9680,0.2079,0.0958,9.7335,-0.6405,1.5097,-4.4651,1.4389,-7.7722,-6.953,-0.01117883385902368,0.026349235717358394,-0.07793069643079881,0.0302705257108039,-0.002004011192673405,-0.0638558977790229
9688,0.1792,0.093,9.7651,-0.5595,1.1295,-4.4561,1.4396,-7.7423,-6.9251,-0.009765117164908273,0.019713493901275952,-0.07777361679811932,9.149680572448718e-05,0.00888533831888442,-0.03281715680558683
9696,0.2407,0.0655,9.8065,-0.482,1.0353,-4.0368,1.4322,-7.7155,-6.8944,-0.008412486994612669,0.018069393745897295,-0.0704554512445071,0.04881509005726599,-0.010324132848987963,0.009545325307570351
9704,0.2822,0.0027,9.8526,-0.704,0.8545,-4.0893,1.4248,-7.6888,-6.8638,-0.01228711793404008,0.014913838458291546,-0.07137174910180412,0.08235989418044472,-0.06005284702791693,0.056113909315092414
9712,0.2765,0.0074,9.8537,-0.6655,0.599,-3.9661,1.4175,-7.6621,-6.8332,-0.011615166172022262,0.010454522219446033,-0.0692215034633471,0.0643607042738668,-0.04565306710802098,0.05726555375317943
9720,0.3924,-0.0621,9.7988,-0.8128,0.4372,-3.8482,1.4126,-7.6346,-6.8003,-0.01418603616020991,0.007630579489719208,-0.06716376027524579,0.17293876822829402,-0.09762825089776236,0.004839443717083114
9728,0.4004,-0.0681,9.8014,-0.8949,0.5093,-3.8742,1.4129,-7.6057,-6.7674,-0.015618951476097256,0.00888896188040712,-0.06761754588076432,0.1682322787179074,-0.09425718802589479,0.007915844505539837
9736,0.4331,-0.0963,9.7819,-0.7708,0.7942,-3.5204,1.4056,-7.5718,-6.7347,-0.013452997874372293,0.013861404919338965,-0.06144257098720838,0.19077910526008438,-0.11112205374699147,-0.010532592006487818
9744,0.4581,-0.1109,9.7693,-0.5828,0.7359,-3.1181,1.3983,-7.5381,-6.7021,-0.010171778880622952,0.01284387796542627,-0.05442111140643519,0.2043760419054864,-0.1154772992289269,-0.022154003214316376
9752,0.4775,-0.0635,9.7748,-0.5523,0.7362,-3.0907,1.4001,-7.506,-6.6761,-0.009639453458764682,0.012849113953182254,-0.053942891191388745,0.20626867393635842,-0.06171062866397817,-0.01570653687950596
9760,0.5129,-0.0347,9.7246,-0.3578,0.8378,-2.9338,1.4048,-7.477,-6.6422,-0.0062447880636357115,0.014622368473208493,-0.05120446959500964,0.22666015600237102,-0.028088674369474046,-0.06450043089451185
9768,0.5545,-0.0793,9.7543,-0.1772,1.119,-2.9971,1.3985,-7.4496,-6.6129,-0.0030927234345339517,0.019530234329816546,-0.052309263011522056,0.2566773937277732,-0.06581528305455764,-0.03322405836677511
9776,0.4828,-0.0982,9.7129,-0.0845,1.1239,-3.2257,1.3973,-7.4223,-6.5827,-0.0014748032179352085,0.01961575546316427,-0.05629908568158108,0.17518623319469423,-0.0827389027705546,-0.07654230493764302
9784,0.3892,-0.0807,9.7378,-0.4091,1.2539,-3.6496,1.3961,-7.3951,-6.5526,-0.007140141969908803,0.0218846834907569,-0.06369753638078506,0.06990225247871981,-0.06074632213552039,-0.054531230902981065
9792,0.3765,-0.0412,9.785,-0.3329,1.1995,-3.8576,1.3928,-7.3645,-6.5257,-0.005810201079889122,0.020935224377671983,-0.06732782122493326,0.04018531106211987,-0.01580096086872726,-0.007767866292667236
9800,0.349,-0.0164,9.7994,-0.2681,1.1182,-3.9552,1.3906,-7.333,-6.4953,-0.004679227724596798,0.019516271695800596,-0.06903126257487972,-0.0008993149217796779,-0.001333863367629016,0.005626330430972715
9808,0.3247,0.0134,9.8102,-0.1154,1.2111,-3.9472,1.3874,-7.3066,-6.466,-0.0020141099568014562,0.021137682570903326,-0.06889163623472018,-0.01457494148556266,0.01591959888990074,0.015557438446981209
9816,0.3113,0.0348,9.7994,0.0093,1.3453,-4.0328,1.3842,-7.2803,-6.4368,0.00016231562043547264,0.023479914427079713,-0.07038563807442733,-0.01733519509860816,0.024076905627432,0.004360197566503743
9824,0.2996,0.0529,9.8266,0.0272,1.1723,-4.0028,1.381,-7.2541,-6.4077,0.0004747295565424576,0.020460494821129525,-0.06986203929882902,-0.019976732060253036,0.02863086067088952,0.031246479159873886
9832,0.3132,0.0446,9.8116,-0.041,1.2202,-3.8087,1.3788,-7.2255,-6.3762,-0.0007155849933176752,0.021296507532834807,-0.06647435522070803,0.0001583746522714333,0.006057719831304566,0.01669706362317669
9840,0.3132,0.0317,9.7879,-0.0262,1.5433,-3.9831,1.3766,-7.197,-6.3448,-0.00045727626402251436,0.026935666346028488,-0.06951820943618614,-5.9056095797820596e-05,0.008491134236040306,-0.0070426613227922985
9848,0.3469,0.0236,9.813,-0.0147,1.1776,-3.9605,1.3744,-7.1721,-6.3175,-0.0002565634000431664,0.020552997271485223,-0.06912376502523543,0.019246021842355004,0.0012141359339819583,0.01913915200905869
9856,0.3755,0.0322,9.8426,-0.0758,0.956,-3.6856,1.3722,-7.1473,-6.2903,-0.001322959573011702,0.01668534764906579,-0.06432585491150301,0.032301461518149596,0.007661676873128499,0.04975683782555329
9864,0.3281,0.0155,9.7882,0.2952,0.88,-3.4334,1.3701,-7.1225,-6.2632,0.005152211951887261,0.0153588974175501,-0.05992413453797331,0.0004380292341728464,-0.0012689143394531924,-0.0062904220113413345
9872,0.3253,0.0003,9.8032,0.0526,0.9406,-3.3068,1.3689,-7.0973,-6.2352,0.0009180431865490173,0.016416566944258665,-0.057714547704948486,0.0011786224811495738,-0.0012228419898239217,0.008595594452168953
9880,0.4107,-0.0476,9.7736,0.1193,0.668,-3.0739,1.3717,-7.0653,-6.2108,0.0020821777976292354,0.011658799403322121,-0.053649675877053694,0.07710708719578019,-0.03722107734881839,-0.018033618003730822
9888,0.4078,-0.0764,9.7736,-0.121,0.6099,-2.6804,1.3706,-7.0339,-6.177,-0.0021118483949131386,0.010644763107913416,-0.046781805270456014,0.06496392195815628,-0.055806625463375635,-0.01797259923086436
9896,0.4616,-0.0651,9.8005,-0.2014,0.7091,-2.5948,1.3694,-7.0025,-6.1433,-0.0035150931135165798,0.01237612972589179,-0.04528780343074887,0.10314679301303849,-0.03590990691079301,0.010972634641111867
9904,0.2466,-0.0407,9.8276,0.0098,0.9292,-2.3529,1.3702,-6.9738,-6.1122,0.00017104226669544429,0.01621759940953131,-0.04106585197017458,-0.09714713539776718,-0.021144255738530796,0.030274928227250086
9912,0.3313,0.0533,9.8821,-0.039,1.0757,-2.0763,1.3665,-6.9466,-6.0812,-0.0006806784082777885,0.018774506763703003,-0.03623827125915826,-0.014691196097121337,0.06249384719273266,0.08758715146522711
9920,0.2667,0.086,9.9005,0.1143,1.2638,-1.8998,1.3629,-6.9181,-6.0528,0.0019949113350295187,0.022057471086704337,-0.03315776512938827,-0.0693680801581465,0.07936372179203205,0.10390400847657943
9928,0.0557,0.2012,9.8288,0.149,1.3024,-1.9284,1.3608,-6.8931,-6.0215,0.0026005405854715507,0.02273116817797415,-0.033656929295458646,-0.2691997026719747,0.17350717864052975,0.025798702855738043
9936,-0.1153,0.2667,9.87,0.1875,1.2112,-1.7717,1.3586,-6.8683,-5.9904,0.003272492347489368,0.02113942790015532,-0.03092199835758354,-0.4292027802754618,0.22140346245873743,0.0624585403546849
9944,-0.1292,0.2696,9.7661,-0.0344,0.7908,-1.3232,1.358,-6.8395,-5.9652,-0.0006003932626860494,0.013802063724771158,-0.023094196662388967,-0.42506742211075454,0.21694692859887665,-0.0409868466718617
9952,-0.063,0.2102,9.8015,-0.1319,0.61,-1.2916,1.3574,-6.8133,-5.9417,-0.0023020892833805207,0.01064650843716541,-0.022542672618758763,-0.34142977662090773,0.15511602842967032,-0.003218895200280514
9960,-0.024,0.1446,9.8408,-0.1132,0.7598,-1.4614,1.3592,-6.7897,-5.9143,-0.001975712713257581,0.013261011656652916,-0.025506241688645133,-0.2836623711838577,0.08730077471286891,0.03741551597312842
9968,-0.0881,0.0921,9.8677,-0.0019,0.8791,-1.3651,1.361,-6.7662,-5.887,-3.316125578789226e-05,0.01534318945428215,-0.023825489618974592,-0.32834851672865206,0.029713644069734334,0.06301432934770546
9976,-0.1633,0.0928,9.8483,0.0485,0.9371,-1.1664,1.3629,-6.7427,-5.8597,0.0008464846872172499,0.016355480420438863,-0.020357520395261862,-0.385968424949549,0.025211206030870684,0.04249380949931947
9984,-0.1417,0.109,9.8093,0.07,0.6673,-1.2083,1.3622,-6.7159,-5.8291,0.0012217304763960308,0.01164658209855816,-0.021088813351847483,-0.34796933400856267,0.041002110490428706,0.004670445737835038
9992,-0.169,0.0348,9.8547,0.1306,0.6812,-1.1738,1.3615,-6.6892,-5.7986,0.0022794000031045943,0.011889182864585374,-0.02048667475990944,-0.35525863862752677,-0.033539426556020026,0.04974875499607734
10000,-0.1296,-0.0168,9.7837,0.1405,0.6439,-0.9887,1.3624,-6.6615,-5.7711,0.0024521875990520334,0.011238175053591488,-0.017256070314467936,-0.2956428530200838,-0.0785120707192543,-0.020209856637540824
10008,-0.082,-0.0349,9.7486,0.1234,0.8403,-1.0278,1.3632,-6.634,-5.7438,0.0021537362969610025,0.014666001704508352,-0.01793849405199772,-0.23077737364093676,-0.08823318525301498,-0.05412391424785845
10016,-0.0932,0.0258,9.7774,0.0509,1.0707,-1.0358,1.364,-6.6065,-5.7165,0.0008883725892651137,0.018687240301103285,-0.018078120392157268,-0.22885432960157506,-0.02659050215330547,-0.024836508732049012
10024,-0.0367,0.0274,9.7698,0.059,1.107,-0.6915,1.3639,-6.5821,-5.6869,0.0010297442586766543,0.019320794819577228,-0.012068951777540788,-0.15541837428696964,-0.01979302410642557,-0.03134896441014767
10032,-0.147,0.079,9.7651,-0.0746,1.2324,-0.6342,1.3612,-6.5578,-5.6573,-0.0013020156219877698,0.021509437701578118,-0.011068878116148038,-0.2511708282881414,0.02424142621135048,-0.036734481830769994
