Timestamp_ms,AccX_Filt,AccY_Filt,AccZ_Filt,GyrX_Filt,GyrY_Filt,GyrZ_Filt,MagX_Filt,MagY_Filt,MagZ_Filt
5233,-0.0870,0.0071,9.8414,-2.3244,-1.7467,-0.5514,10.6650,5.1300,-51.3000
5240,-0.1569,0.0287,9.8392,-2.2693,-0.9291,-0.2179,10.6195,4.3524,-53.6874
5248,-0.1579,0.0505,9.8902,-2.4137,0.1591,-0.0248,11.0507,4.7874,-54.2568
5256,-0.1274,0.0257,9.8233,-2.9308,0.0916,-0.2039,11.2442,4.9990,-54.4130
5264,-0.1414,0.0218,9.8171,-3.3653,0.1127,-0.2007,10.8997,4.9717,-54.1952
5272,-0.1525,-0.0173,9.8207,-3.5320,0.2405,-0.3641,11.0440,4.9214,-54.0340
5280,-0.1283,-0.0433,9.8425,-3.0889,0.2786,-0.2312,11.0483,4.9213,-53.8430
5288,-0.1405,-0.0360,9.8291,-2.7394,0.0945,-0.4699,11.0941,4.8602,-53.8924
5296,-0.1418,-0.0347,9.8437,-2.3459,0.0567,0.0084,11.1185,4.8078,-53.8727
5304,-0.1386,-0.0397,9.8429,-2.2097,-0.0702,-0.2119,11.1279,4.7614,-53.8050
5312,-0.1412,-0.0323,9.8284,-1.7600,-0.0917,-0.0497,11.0994,4.7872,-53.5945
5320,-0.1372,-0.0190,9.8288,-1.8120,-0.0108,-0.2272,11.0673,4.8052,-53.3763
5328,-0.1286,-0.0209,9.8249,-1.7636,0.0015,-0.0540,10.9293,4.7142,-53.1755
5336,-0.1288,-0.0266,9.8195,-1.6442,0.0412,-0.1714,10.8040,4.6331,-52.9674
5344,-0.1301,-0.0271,9.8309,-1.5171,-0.0897,-0.2508,10.6887,4.5601,-52.7538
5352,-0.1227,-0.0265,9.8380,-1.2781,-0.0823,-0.2989,10.6191,4.5029,-52.4522
5360,-0.1157,-0.0358,9.8257,-0.9861,-0.1051,-0.3584,10.6834,4.4940,-52.2625
5368,-0.1129,-0.0392,9.8302,-0.8497,-0.1376,-0.0893,10.7019,4.4341,-52.1415
5376,-0.1033,-0.0389,9.8309,-0.6724,-0.0814,-0.0800,10.7132,4.3784,-52.0078
5384,-0.1084,-0.0395,9.8390,-0.6396,-0.0267,-0.1845,10.6887,4.3337,-51.7962
5392,-0.0984,-0.0434,9.8323,-0.6462,0.0378,-0.3344,10.6619,4.3627,-51.5680
5400,-0.1067,-0.0399,9.8364,-0.6843,0.1322,-0.3188,10.5992,4.3397,-51.3052
5408,-0.0993,-0.0381,9.8379,-0.6257,0.1740,-0.4119,10.5378,4.3170,-51.0450
5416,-0.1024,-0.0356,9.8308,-0.5987,-0.0078,-0.3927,10.4775,4.2947,-50.7872
5424,-0.0977,-0.0467,9.8171,-0.5307,-0.0996,-0.4678,10.4423,4.2487,-50.5258
5432,-0.0982,-0.0461,9.8204,-0.5066,-0.0056,-0.2640,10.4063,4.2049,-50.2672
5440,-0.0930,-0.0410,9.8238,-0.5322,0.0209,-0.3048,10.3917,4.1851,-50.0055
5448,-0.0958,-0.0460,9.8269,-0.4962,-0.0677,-0.2610,10.3749,4.1655,-49.7467
5456,-0.1065,-0.0487,9.8274,-0.4532,-0.0761,-0.3163,10.3459,4.1769,-49.5474
5464,-0.0978,-0.0512,9.8347,-0.4375,-0.0501,-0.2516,10.2608,4.1815,-49.3020
5472,-0.0969,-0.0534,9.8340,-0.4289,-0.0530,-0.2818,10.1639,4.1894,-49.0875
5480,-0.0997,-0.0572,9.8275,-0.4567,-0.0168,-0.2083,10.1219,4.2005,-48.8543
5488,-0.0954,-0.0584,9.8211,-0.4977,0.0351,-0.1776,10.0798,4.2099,-48.6225
5496,-0.0969,-0.0416,9.8226,-0.5010,-0.0483,-0.1781,10.0156,4.1957,-48.4141
5504,-0.0828,-0.0465,9.8267,-0.5625,-0.0746,-0.1757,9.9526,4.1384,-48.1843
5512,-0.0806,-0.0551,9.8208,-0.6322,-0.1167,-0.2978,9.9075,4.0875,-47.9517
5520,-0.0749,-0.0574,9.8287,-0.6579,-0.0704,-0.2266,9.8626,4.0384,-47.7207
5528,-0.0780,-0.0581,9.8259,-0.6908,-0.0808,-0.1848,9.8178,3.9911,-47.4913
5536,-0.0857,-0.0628,9.8164,-0.6794,-0.1587,-0.1367,9.7733,3.9762,-47.2750
5544,-0.0814,-0.0689,9.8134,-0.6601,-0.1762,-0.2464,9.7290,3.9613,-47.0596
5552,-0.0825,-0.0617,9.8311,-0.6783,-0.2405,-0.1988,9.6959,3.9683,-46.8232
5560,-0.0853,-0.0724,9.8262,-0.7628,-0.1897,-0.1563,9.6625,3.9742,-46.5888
5568,-0.0750,-0.0639,9.8249,-0.6981,-0.1415,-0.1327,9.6043,3.9547,-46.3459
5576,-0.0749,-0.0631,9.8252,-0.6978,-0.2399,-0.1519,9.5812,3.9353,-46.1465
5584,-0.0871,-0.0664,9.8277,-0.5619,-0.3336,-0.0485,9.5139,3.9562,-45.9174
5592,-0.0967,-0.0667,9.8281,-0.5952,-0.4254,0.0638,9.4545,3.9230,-45.7000
5600,-0.0863,-0.0684,9.8298,-0.6160,-0.5404,0.1459,9.3959,3.8906,-45.4840
5608,-0.0801,-0.0739,9.8250,-0.5507,-0.5045,0.2159,9.3571,3.9090,-45.2600
5616,-0.0822,-0.0749,9.8262,-0.5378,-0.4458,0.2251,9.3337,3.8799,-45.0593
5624,-0.0791,-0.0803,9.8349,-0.5637,-0.2860,0.1738,9.3008,3.8663,-44.8444
5632,-0.0676,-0.0683,9.8370,-0.5230,-0.3054,0.0923,9.2677,3.8526,-44.6309
5640,-0.0686,-0.0566,9.8365,-0.5223,-0.2368,0.2484,9.2346,3.8389,-44.4188
5648,-0.0718,-0.0542,9.8388,-0.5107,-0.2691,0.2995,9.1956,3.8194,-44.1939
5656,-0.0752,-0.0515,9.8368,-0.4726,-0.3758,0.3402,9.1568,3.8000,-43.9710
5664,-0.0732,-0.0386,9.8346,-0.4741,-0.3450,0.2572,9.1181,3.8219,-43.7774
5672,-0.0851,-0.0438,9.8298,-0.5053,-0.2913,0.3455,9.0795,3.7938,-43.5658
5680,-0.0922,-0.0531,9.8323,-0.5054,-0.3454,0.2004,9.0411,3.7662,-43.3557
5688,-0.0854,-0.0524,9.8377,-0.4596,-0.3214,0.2803,8.9794,3.7833,-43.1367
5696,-0.0843,-0.0413,9.8363,-0.4212,-0.3201,0.1060,8.9417,3.7685,-42.9478
5704,-0.0842,-0.0339,9.8354,-0.4519,-0.3431,0.1011,8.8966,3.7537,-42.7597
5712,-0.0749,-0.0223,9.8365,-0.4194,-0.2333,0.2147,8.8518,3.7388,-42.5725
5720,-0.0816,-0.0290,9.8370,-0.3775,-0.1633,0.2454,8.8173,3.7214,-42.3837
5728,-0.0836,-0.0242,9.8324,-0.3779,-0.2576,0.0543,8.7828,3.7041,-42.1959
5736,-0.0845,-0.0149,9.8429,-0.3862,-0.3423,-0.0342,8.7389,3.6703,-42.0162
5744,-0.0771,-0.0150,9.8437,-0.4210,-0.3750,-0.0705,8.6953,3.6370,-41.8372
5752,-0.0599,-0.0111,9.8412,-0.4033,-0.4142,-0.0810,8.6522,3.6043,-41.6589
5760,-0.0562,-0.0044,9.8549,-0.3730,-0.4276,-0.1233,8.6094,3.5857,-41.4928
5768,-0.0492,-0.0064,9.8578,-0.3736,-0.3601,-0.0216,8.5803,3.5516,-41.3137
5776,-0.0506,-0.0083,9.8476,-0.4169,-0.3222,0.0005,8.5424,3.5246,-41.1200
5784,-0.0555,0.0004,9.8470,-0.4423,-0.2620,0.0243,8.5003,3.5067,-40.9297
5792,-0.0627,0.0015,9.8474,-0.4237,-0.3169,0.1997,8.4586,3.4889,-40.7407
5800,-0.0764,-0.0057,9.8451,-0.4273,-0.3693,0.1131,8.4151,3.4733,-40.5719
5808,-0.0771,-0.0222,9.8402,-0.4388,-0.3846,0.1908,8.3783,3.4515,-40.3829
5816,-0.0840,-0.0222,9.8358,-0.4632,-0.3699,0.1474,8.3334,3.4381,-40.1931
5824,-0.0976,-0.0217,9.8432,-0.4838,-0.3183,0.0766,8.3031,3.4308,-40.0087
5832,-0.1012,-0.0262,9.8440,-0.4795,-0.2450,0.1532,8.2729,3.4234,-39.8253
5840,-0.1077,-0.0171,9.8542,-0.4807,-0.2978,0.1489,8.2428,3.4158,-39.6432
5848,-0.1081,-0.0121,9.8435,-0.5246,-0.3483,0.1288,8.1990,3.3982,-39.4661
5856,-0.1103,-0.0066,9.8465,-0.5505,-0.3859,0.2084,8.1556,3.3808,-39.2900
5864,-0.1182,-0.0162,9.8515,-0.5646,-0.4299,0.2417,8.1049,3.3596,-39.1187
5872,-0.1198,-0.0204,9.8560,-0.5247,-0.4933,0.2870,8.0548,3.3386,-38.9483
5880,-0.1268,-0.0287,9.8424,-0.6334,-0.5005,0.2342,8.0239,3.3328,-38.7602
5888,-0.1154,-0.0248,9.8487,-0.6038,-0.5635,0.2076,7.9821,3.3194,-38.5883
5896,-0.1169,-0.0345,9.8521,-0.5862,-0.4848,0.0915,7.9296,3.2987,-38.4118
5904,-0.1146,-0.0296,9.8502,-0.4332,-0.5458,0.0366,7.8922,3.2782,-38.2364
5912,-0.1093,-0.0275,9.8535,-0.4791,-0.5587,-0.0133,7.8551,3.2615,-38.0729
5920,-0.1045,-0.0251,9.8565,-0.4430,-0.5978,0.0484,7.8041,3.2413,-37.8995
5928,-0.1080,-0.0289,9.8455,-0.3897,-0.7178,0.0968,7.7589,3.2248,-37.7378
5936,-0.1224,-0.0218,9.8538,-0.3735,-0.6298,-0.0518,7.7227,3.2032,-37.5648
5944,-0.1233,-0.0159,9.8504,-0.3420,-0.6017,-0.0844,7.6869,3.1818,-37.3928
5952,-0.1240,-0.0132,9.8632,-0.3332,-0.6281,-0.1957,7.6512,3.1607,-37.2220
5960,-0.1379,-0.0167,9.8698,-0.3328,-0.7548,-0.2381,7.6225,3.1497,-37.0623
5968,-0.1532,-0.0167,9.8640,-0.3457,-0.7373,-0.2546,7.5939,3.1388,-36.9034
5976,-0.1456,-0.0209,9.8619,-0.3901,-0.6804,-0.1983,7.5456,3.1278,-36.7404
5984,-0.1447,-0.0305,9.8549,-0.3472,-0.5701,-0.2459,7.4979,3.1168,-36.5784
5992,-0.1297,-0.0264,9.8550,-0.3755,-0.4485,-0.2327,7.4716,3.1043,-36.4238
6000,-0.1248,-0.0210,9.8538,-0.3732,-0.4897,-0.2868,7.4501,3.0758,-36.2699
6008,-0.1163,-0.0297,9.8554,-0.3551,-0.4437,-0.3092,7.4049,3.0681,-36.1169
6016,-0.1122,-0.0371,9.8582,-0.4017,-0.4344,-0.2959,7.3695,3.0573,-35.9474
6024,-0.1058,-0.0329,9.8507,-0.4063,-0.5722,-0.1631,7.3344,3.0464,-35.7791
6032,-0.1018,-0.0346,9.8526,-0.3894,-0.4559,-0.2202,7.2964,3.0356,-35.6349
6040,-0.1005,-0.0310,9.8474,-0.4025,-0.3687,-0.2882,7.2588,3.0248,-35.4913
6048,-0.1016,-0.0224,9.8437,-0.3671,-0.2907,-0.3825,7.2305,3.0094,-35.3424
6056,-0.1039,-0.0137,9.8426,-0.4185,-0.2774,-0.4434,7.2022,2.9941,-35.1943
6064,-0.1024,-0.0203,9.8548,-0.5397,-0.2727,-0.4535,7.1741,2.9790,-35.0469
6072,-0.1051,-0.0236,9.8472,-0.4343,-0.2282,-0.4313,7.1447,2.9609,-34.9061
6080,-0.1158,-0.0380,9.8562,-0.4428,-0.2497,-0.4926,7.1154,2.9431,-34.7660
6088,-0.1177,-0.0488,9.8462,-0.4776,-0.2862,-0.4367,7.0920,2.9181,-34.6193
6096,-0.1117,-0.0407,9.8449,-0.4548,-0.3291,-0.3165,7.0686,2.8934,-34.4734
6104,-0.1185,-0.0448,9.8637,-0.4971,-0.2955,-0.2655,7.0481,2.8747,-34.3326
6112,-0.1242,-0.0408,9.8566,-0.4682,-0.3007,-0.1795,7.0164,2.8519,-34.1896
6120,-0.1144,-0.0508,9.8675,-0.3579,-0.2336,-0.2092,6.9835,2.8321,-34.0390
6128,-0.1151,-0.0485,9.8710,-0.3804,-0.2735,-0.2136,6.9522,2.8207,-33.8976
6136,-0.1038,-0.0518,9.8755,-0.4046,-0.3143,-0.2472,6.9210,2.8094,-33.7569
6144,-0.0864,-0.0398,9.8709,-0.4090,-0.3854,-0.2153,6.8738,2.7873,-33.6237
6152,-0.0838,-0.0408,9.8727,-0.3813,-0.4133,-0.3288,6.8270,2.7653,-33.4911
6160,-0.0742,-0.0527,9.8797,-0.3681,-0.3706,-0.3253,6.8048,2.7530,-33.3445
6168,-0.0709,-0.0606,9.8766,-0.4302,-0.3725,-0.2953,6.7826,2.7407,-33.1987
6176,-0.0894,-0.0583,9.8842,-0.4255,-0.3397,-0.2826,6.7605,2.7284,-33.0537
6184,-0.0924,-0.0507,9.8852,-0.3917,-0.2683,-0.3985,6.7359,2.7188,-32.9187
6192,-0.0993,-0.0538,9.8833,-0.3834,-0.2880,-0.3760,6.7113,2.7001,-32.7844
6200,-0.0977,-0.0581,9.8848,-0.4048,-0.1281,-0.5011,6.6792,2.6996,-32.6456
6208,-0.0959,-0.0514,9.8903,-0.4253,-0.1566,-0.4527,6.6536,2.6990,-32.5076
6216,-0.0979,-0.0558,9.8802,-0.4662,-0.0959,-0.4198,6.6282,2.6919,-32.3678
6224,-0.0946,-0.0444,9.8779,-0.4973,-0.0458,-0.4150,6.5915,2.6634,-32.2338
6232,-0.1004,-0.0381,9.8726,-0.5217,-0.1499,-0.4478,6.5627,2.6565,-32.1080
6240,-0.0983,-0.0502,9.8674,-0.5397,-0.2015,-0.4471,6.5315,2.6396,-31.9580
6248,-0.0955,-0.0498,9.8704,-0.4503,-0.1521,-0.5185,6.5006,2.6229,-31.8089
6256,-0.0998,-0.0443,9.8613,-0.5061,-0.0809,-0.5974,6.4625,2.6113,-31.6743
6264,-0.1050,-0.0472,9.8658,-0.5408,-0.0794,-0.5688,6.4248,2.5997,-31.5405
6272,-0.1034,-0.0411,9.8631,-0.5819,-0.1367,-0.5335,6.3994,2.5845,-31.4013
6280,-0.0974,-0.0497,9.8706,-0.5013,-0.1169,-0.4917,6.3742,2.5695,-31.2630
6288,-0.0883,-0.0466,9.8674,-0.4882,-0.0952,-0.5238,6.3491,2.5546,-31.1255
6296,-0.0791,-0.0529,9.8682,-0.5050,-0.1731,-0.5545,6.3241,2.5398,-30.9983
6304,-0.0836,-0.0617,9.8611,-0.4678,-0.2023,-0.6451,6.3075,2.5228,-30.8683
6312,-0.0840,-0.0666,9.8602,-0.4641,-0.2569,-0.6198,6.2804,2.5130,-30.7354
6320,-0.0848,-0.0641,9.8634,-0.4687,-0.2691,-0.5396,6.2406,2.5078,-30.6126
6328,-0.0769,-0.0642,9.8718,-0.4063,-0.2594,-0.4202,6.2012,2.5026,-30.4904
6336,-0.0939,-0.0619,9.8804,-0.4214,-0.3462,-0.4394,6.1863,2.4871,-30.3643
6344,-0.1061,-0.0544,9.8753,-0.4705,-0.2932,-0.4844,6.1599,2.4752,-30.2422
6352,-0.1112,-0.0536,9.8726,-0.5200,-0.3251,-0.5621,6.1223,2.4599,-30.1208
6360,-0.1113,-0.0496,9.8756,-0.4875,-0.3183,-0.5325,6.1020,2.4414,-30.0000
6368,-0.1200,-0.0506,9.8764,-0.4510,-0.3572,-0.5254,6.0817,2.4230,-29.8798
6376,-0.1101,-0.0529,9.8786,-0.4641,-0.2690,-0.5507,6.0614,2.4048,-29.7602
6384,-0.0911,-0.0522,9.8719,-0.4606,-0.1980,-0.4228,6.0347,2.3945,-29.6368
6392,-0.0926,-0.0529,9.8768,-0.4333,-0.1755,-0.5086,6.0081,2.3843,-29.5141
6400,-0.1022,-0.0577,9.8730,-0.3538,-0.2472,-0.4999,5.9827,2.3730,-29.3964
6408,-0.1040,-0.0583,9.8769,-0.3898,-0.1958,-0.5263,5.9575,2.3618,-29.2793
6416,-0.1043,-0.0571,9.8717,-0.3416,-0.2587,-0.4795,5.9259,2.3463,-29.1585
6424,-0.1073,-0.0528,9.8670,-0.3382,-0.2388,-0.5947,5.9096,2.3353,-29.0448
6432,-0.1228,-0.0480,9.8760,-0.2789,-0.3052,-0.6036,5.8966,2.3254,-28.9231
6440,-0.1122,-0.0478,9.8709,-0.3742,-0.3046,-0.5135,5.8835,2.3156,-28.8021
6448,-0.0989,-0.0498,9.8823,-0.3000,-0.3734,-0.4459,5.8588,2.3100,-28.6933
6456,-0.1093,-0.0426,9.8688,-0.2397,-0.3511,-0.4293,5.8332,2.3002,-28.5735
6464,-0.1004,-0.0442,9.8717,-0.1767,-0.4366,-0.3921,5.8077,2.2905,-28.4544
6472,-0.1047,-0.0362,9.8716,-0.1618,-0.4116,-0.3485,5.7897,2.2892,-28.3307
6480,-0.1008,-0.0357,9.8697,-0.1369,-0.4863,-0.2615,5.7717,2.2877,-28.2077
6488,-0.1019,-0.0503,9.8615,-0.1477,-0.4458,-0.3863,5.7538,2.2863,-28.0854
6496,-0.1051,-0.0448,9.8597,-0.1981,-0.3218,-0.3857,5.7216,2.2817,-27.9760
6504,-0.1112,-0.0462,9.8634,-0.1929,-0.3578,-0.4010,5.6999,2.2721,-27.8571
6512,-0.1062,-0.0535,9.8623,-0.1853,-0.3469,-0.4237,5.6792,2.2635,-27.7428
6520,-0.1059,-0.0564,9.8626,-0.2074,-0.2965,-0.3681,5.6587,2.2549,-27.6292
6528,-0.0982,-0.0439,9.8652,-0.1885,-0.1897,-0.4882,5.6442,2.2584,-27.5121
6536,-0.0959,-0.0377,9.8452,-0.2157,-0.1915,-0.4644,5.6159,2.2419,-27.4146
6544,-0.0897,-0.0275,9.8444,-0.1804,-0.2865,-0.5030,5.5808,2.2334,-27.3026
6552,-0.0913,-0.0365,9.8437,-0.1840,-0.2548,-0.4573,5.5558,2.2172,-27.1962
6560,-0.0878,-0.0305,9.8490,-0.1635,-0.2617,-0.4268,5.5309,2.2010,-27.0902
6568,-0.0937,-0.0356,9.8474,-0.1198,-0.2737,-0.3577,5.5033,2.1850,-26.9751
6576,-0.1009,-0.0256,9.8491,-0.0594,-0.2159,-0.4650,5.4759,2.1691,-26.8606
6584,-0.1061,-0.0193,9.8598,-0.0443,-0.1925,-0.5089,5.4583,2.1591,-26.7467
6592,-0.1093,-0.0200,9.8699,0.0448,-0.1596,-0.5802,5.4407,2.1492,-26.6334
6600,-0.1046,-0.0128,9.8691,0.0767,-0.1813,-0.5417,5.4232,2.1393,-26.5208
6608,-0.1048,-0.0046,9.8756,0.0725,-0.1942,-0.5316,5.4001,2.1276,-26.4125
6616,-0.1100,0.0007,9.8742,0.1058,-0.1745,-0.5033,5.3781,2.1197,-26.3058
6624,-0.1179,0.0026,9.8715,0.0710,-0.2489,-0.5828,5.3543,2.1044,-26.2015
6632,-0.1233,0.0067,9.8664,0.0245,-0.3521,-0.5496,5.3306,2.0891,-26.0977
6640,-0.1199,0.0090,9.8641,-0.0014,-0.3575,-0.4564,5.3108,2.0824,-25.9916
6648,-0.1132,0.0034,9.8569,-0.0662,-0.3653,-0.3780,5.2911,2.0757,-25.8908
6656,-0.1122,0.0079,9.8582,-0.0268,-0.3914,-0.4577,5.2668,2.0672,-25.7858
6664,-0.1058,0.0069,9.8621,-0.1038,-0.4218,-0.4193,5.2483,2.0523,-25.6822
6672,-0.1091,0.0128,9.8734,-0.0467,-0.4534,-0.4145,5.2298,2.0375,-25.5792
6680,-0.1057,0.0100,9.8713,-0.0349,-0.4944,-0.4873,5.2159,2.0301,-25.4859
6688,-0.0999,0.0075,9.8735,0.0485,-0.5255,-0.4769,5.2021,2.0227,-25.3929
6696,-0.0969,0.0001,9.8705,0.0482,-0.5046,-0.5016,5.1829,2.0100,-25.2904
6704,-0.1006,-0.0006,9.8609,0.0453,-0.5993,-0.4852,5.1638,1.9973,-25.1885
6712,-0.0949,0.0029,9.8604,0.0105,-0.5566,-0.5229,5.1448,1.9847,-25.0871
6720,-0.1006,-0.0126,9.8496,-0.0095,-0.5797,-0.4763,5.1276,1.9722,-24.9906
6728,-0.1012,-0.0176,9.8543,-0.0819,-0.5911,-0.5810,5.1106,1.9642,-24.9008
6736,-0.0995,-0.0207,9.8608,-0.0898,-0.5780,-0.5878,5.0847,1.9537,-24.8053
6744,-0.0993,-0.0221,9.8558,-0.0707,-0.5788,-0.6957,5.0590,1.9431,-24.7101
6752,-0.0959,-0.0207,9.8513,-0.1031,-0.6463,-0.5748,5.0317,1.9309,-24.6129
6760,-0.1075,-0.0226,9.8581,-0.1714,-0.6335,-0.6593,5.0142,1.9223,-24.5152
6768,-0.0983,-0.0184,9.8570,-0.1461,-0.5705,-0.6200,4.9916,1.9120,-24.4215
6776,-0.0969,-0.0228,9.8501,-0.1805,-0.5183,-0.6438,4.9691,1.9017,-24.3282
6784,-0.1074,-0.0282,9.8493,-0.2374,-0.5538,-0.5305,4.9467,1.8915,-24.2354
6792,-0.1055,-0.0234,9.8490,-0.2946,-0.4863,-0.5449,4.9313,1.8848,-24.1456
6800,-0.0975,-0.0287,9.8424,-0.2212,-0.4938,-0.4653,4.9160,1.8781,-24.0562
6808,-0.0875,-0.0258,9.8378,-0.2257,-0.5810,-0.4239,4.9007,1.8647,-23.9613
6816,-0.0975,-0.0354,9.8459,-0.1873,-0.6110,-0.4082,4.8796,1.8581,-23.8625
6824,-0.0939,-0.0377,9.8487,-0.1586,-0.5997,-0.3639,4.8585,1.8515,-23.7643
6832,-0.0824,-0.0375,9.8494,-0.1231,-0.5836,-0.4043,4.8384,1.8442,-23.6717
6840,-0.0811,-0.0306,9.8505,-0.1239,-0.5549,-0.3335,4.8277,1.8419,-23.5769
6848,-0.0836,-0.0370,9.8547,-0.1247,-0.6020,-0.3085,4.8077,1.8345,-23.4852
6856,-0.0894,-0.0332,9.8475,-0.1760,-0.5565,-0.2152,4.7938,1.8289,-23.3922
6864,-0.0943,-0.0340,9.8552,-0.2225,-0.5583,-0.1794,4.7798,1.8233,-23.2997
6872,-0.0932,-0.0300,9.8484,-0.2216,-0.5573,-0.1984,4.7610,1.8128,-23.2143
6880,-0.0941,-0.0342,9.8437,-0.2074,-0.5243,-0.2380,4.7438,1.7973,-23.1226
6888,-0.0921,-0.0408,9.8503,-0.2551,-0.5915,-0.2678,4.7268,1.7820,-23.0314
6896,-0.0835,-0.0390,9.8513,-0.2128,-0.5437,-0.3097,4.7123,1.7783,-22.9374
6904,-0.0835,-0.0355,9.8532,-0.2123,-0.5567,-0.2724,4.6979,1.7745,-22.8438
6912,-0.0903,-0.0396,9.8639,-0.2012,-0.5238,-0.2473,4.6835,1.7708,-22.7507
6920,-0.0782,-0.0333,9.8668,-0.1719,-0.4524,-0.1808,4.6740,1.7638,-22.6629
6928,-0.0796,-0.0381,9.8795,-0.2719,-0.4373,-0.2131,4.6548,1.7584,-22.5756
6936,-0.0845,-0.0379,9.8822,-0.2501,-0.5137,-0.2253,4.6350,1.7531,-22.4886
6944,-0.0821,-0.0355,9.8738,-0.2694,-0.4080,-0.2477,4.6152,1.7430,-22.3973
6952,-0.0890,-0.0255,9.8803,-0.1944,-0.3176,-0.2905,4.5972,1.7393,-22.3120
6960,-0.1012,-0.0288,9.8712,-0.2187,-0.3618,-0.2673,4.5856,1.7317,-22.2255
6968,-0.0999,-0.0162,9.8643,-0.2393,-0.2841,-0.2559,4.5669,1.7289,-22.1442
6976,-0.1084,-0.0140,9.8581,-0.1417,-0.3911,-0.2182,4.5483,1.7260,-22.0633
6984,-0.1060,-0.0147,9.8615,-0.1817,-0.3547,-0.1583,4.5298,1.7232,-21.9827
6992,-0.1033,-0.0072,9.8619,-0.1985,-0.2427,-0.0823,4.5106,1.7133,-21.8993
7000,-0.1110,-0.0095,9.8623,-0.2440,-0.2102,-0.1296,4.4915,1.7034,-21.8163
7008,-0.1015,-0.0070,9.8612,-0.2848,-0.1871,-0.0735,4.4764,1.6913,-21.7306
7016,-0.1116,-0.0074,9.8657,-0.2545,-0.2103,-0.1505,4.4613,1.6792,-21.6453
7024,-0.1061,-0.0097,9.8753,-0.2469,-0.2539,-0.1388,4.4464,1.6672,-21.5604
7032,-0.1117,-0.0167,9.8753,-0.2583,-0.2902,-0.1490,4.4253,1.6600,-21.4775
7040,-0.1153,-0.0072,9.8812,-0.2585,-0.3223,-0.0947,4.4043,1.6466,-21.3988
7048,-0.1159,-0.0081,9.8788,-0.3253,-0.3690,-0.1708,4.3942,1.6340,-21.3158
7056,-0.1146,-0.0176,9.8767,-0.2373,-0.2883,-0.0942,4.3841,1.6216,-21.2332
7064,-0.1098,-0.0166,9.8783,-0.1930,-0.3044,-0.0157,4.3717,1.6130,-21.1510
7072,-0.0986,-0.0289,9.8694,-0.1748,-0.3706,0.0115,4.3549,1.6060,-21.0647
7080,-0.0985,-0.0382,9.8622,-0.1813,-0.3991,-0.0133,4.3403,1.5990,-20.9856
7088,-0.0993,-0.0453,9.8726,-0.2035,-0.4878,-0.0103,4.3259,1.5921,-20.9068
7096,-0.0919,-0.0499,9.8746,-0.2488,-0.5086,0.1046,4.3115,1.5852,-20.8284
7104,-0.0919,-0.0485,9.8729,-0.2920,-0.4484,-0.0469,4.2972,1.5783,-20.7436
7112,-0.0897,-0.0473,9.8731,-0.2534,-0.4736,-0.0344,4.2829,1.5715,-20.6592
7120,-0.0996,-0.0440,9.8669,-0.2618,-0.4630,-0.1131,4.2664,1.5699,-20.5767
7128,-0.1048,-0.0441,9.8664,-0.2566,-0.5062,-0.0737,4.2501,1.5683,-20.4946
7136,-0.1119,-0.0402,9.8617,-0.2222,-0.5048,-0.0574,4.2293,1.5638,-20.4137
7144,-0.1173,-0.0439,9.8717,-0.2773,-0.5222,-0.1138,4.2109,1.5540,-20.3368
7152,-0.1237,-0.0303,9.8766,-0.3300,-0.6028,-0.1704,4.1896,1.5510,-20.2595
7160,-0.1244,-0.0327,9.8764,-0.3324,-0.6558,-0.1205,4.1751,1.5465,-20.1819
7168,-0.1222,-0.0357,9.8804,-0.3693,-0.7626,-0.1368,4.1606,1.5420,-20.1046
7176,-0.1103,-0.0367,9.8786,-0.3220,-0.6727,-0.0377,4.1470,1.5295,-20.0298
7184,-0.1086,-0.0334,9.8833,-0.3007,-0.6587,-0.0283,4.1333,1.5265,-19.9554
7192,-0.1194,-0.0373,9.8852,-0.2724,-0.6187,-0.1126,4.1234,1.5199,-19.8813
7200,-0.1137,-0.0349,9.8770,-0.2933,-0.6550,-0.1559,4.1135,1.5134,-19.8075
7208,-0.1231,-0.0336,9.8796,-0.3027,-0.6952,-0.1307,4.1036,1.5069,-19.7341
7216,-0.1143,-0.0370,9.8782,-0.3009,-0.6829,-0.1625,4.0859,1.5011,-19.6689
7224,-0.1140,-0.0365,9.8739,-0.3179,-0.7431,-0.1370,4.0682,1.4953,-19.6040
7232,-0.1143,-0.0587,9.8740,-0.3502,-0.6860,-0.1632,4.0599,1.4831,-19.5337
7240,-0.1232,-0.0493,9.8714,-0.2930,-0.7115,-0.1270,4.0431,1.4710,-19.4636
7248,-0.1216,-0.0407,9.8663,-0.1877,-0.7331,-0.0710,4.0263,1.4647,-19.3938
7256,-0.1239,-0.0298,9.8685,-0.2043,-0.6685,-0.1135,4.0125,1.4534,-19.3165
7264,-0.1360,-0.0240,9.8710,-0.1855,-0.7880,-0.0928,4.0009,1.4451,-19.2474
7272,-0.1368,-0.0297,9.8777,-0.2556,-0.6277,-0.1316,3.9801,1.4374,-19.1758
7280,-0.1340,-0.0289,9.8684,-0.2479,-0.5143,-0.1394,3.9594,1.4298,-19.1044
7288,-0.1219,-0.0227,9.8768,-0.3206,-0.5073,-0.1256,3.9445,1.4237,-19.0376
7296,-0.1237,-0.0163,9.8853,-0.2994,-0.4365,0.0210,3.9296,1.4176,-18.9711
7304,-0.1102,-0.0163,9.8793,-0.3004,-0.4595,0.1105,3.9148,1.4073,-18.9014
7312,-0.1104,-0.0150,9.8758,-0.2401,-0.4762,0.1001,3.9000,1.3971,-18.8320
7320,-0.1105,-0.0193,9.8743,-0.2438,-0.4788,-0.0271,3.8854,1.3869,-18.7628
7328,-0.1198,-0.0099,9.8676,-0.1833,-0.5133,0.0111,3.8722,1.3782,-18.6968
7336,-0.1099,-0.0247,9.8656,-0.1494,-0.5303,-0.0989,3.8562,1.3723,-18.6303
7344,-0.0951,-0.0299,9.8674,-0.0664,-0.5199,-0.0948,3.8445,1.3671,-18.5600
7352,-0.1012,-0.0259,9.8663,-0.1710,-0.4113,-0.1202,3.8329,1.3599,-18.4935
7360,-0.1008,-0.0314,9.8613,-0.1030,-0.3660,-0.0165,3.8213,1.3527,-18.4272
7368,-0.0832,-0.0163,9.8612,-0.1233,-0.3041,-0.0107,3.8090,1.3428,-18.3633
7376,-0.0818,-0.0259,9.8667,-0.0734,-0.2663,0.1228,3.7927,1.3466,-18.2941
7384,-0.0883,-0.0210,9.8688,-0.1244,-0.4061,0.1492,3.7764,1.3429,-18.2287
7392,-0.0824,-0.0146,9.8708,-0.1331,-0.4677,0.1425,3.7644,1.3331,-18.1690
7400,-0.0947,-0.0226,9.8726,-0.0908,-0.3667,0.2480,3.7524,1.3233,-18.1096
7408,-0.0950,-0.0307,9.8719,-0.1729,-0.3581,0.1889,3.7404,1.3136,-18.0504
7416,-0.0984,-0.0316,9.8622,-0.1742,-0.3259,0.2524,3.7305,1.3019,-17.9860
7424,-0.1084,-0.0270,9.8694,-0.2047,-0.5111,0.2705,3.7207,1.2902,-17.9219
7432,-0.1073,-0.0288,9.8668,-0.1833,-0.4882,0.3331,3.7129,1.2800,-17.8560
7440,-0.1173,-0.0290,9.8694,-0.2134,-0.4583,0.3050,3.7051,1.2698,-17.7905
7448,-0.1132,-0.0342,9.8618,-0.2609,-0.3817,0.3927,3.6899,1.2591,-17.7198
7456,-0.1085,-0.0412,9.8644,-0.2530,-0.3324,0.2660,3.6729,1.2537,-17.6555
7464,-0.1083,-0.0453,9.8727,-0.2561,-0.2933,0.3874,3.6579,1.2550,-17.5948
7472,-0.1027,-0.0430,9.8807,-0.3097,-0.2799,0.3596,3.6430,1.2563,-17.5344
7480,-0.1082,-0.0296,9.8770,-0.1663,-0.2804,0.3383,3.6241,1.2517,-17.4688
7488,-0.1085,-0.0379,9.8709,-0.2426,-0.3183,0.3393,3.6067,1.2450,-17.4016
7496,-0.0993,-0.0350,9.8613,-0.2194,-0.4371,0.3109,3.5894,1.2384,-17.3347
7504,-0.1041,-0.0342,9.8622,-0.2053,-0.4175,0.1664,3.5794,1.2311,-17.2720
7512,-0.1044,-0.0353,9.8721,-0.1599,-0.4440,0.1775,3.5695,1.2239,-17.2096
7520,-0.1065,-0.0463,9.8742,-0.2364,-0.4693,0.0815,3.5595,1.2167,-17.1475
7528,-0.1202,-0.0453,9.8643,-0.1655,-0.4722,0.0617,3.5457,1.2121,-17.0915
7536,-0.1130,-0.0389,9.8621,-0.1084,-0.3977,0.0855,3.5281,1.2103,-17.0286
7544,-0.1138,-0.0300,9.8588,-0.0832,-0.4864,0.0228,3.5183,1.1999,-16.9626
7552,-0.1132,-0.0214,9.8494,-0.0590,-0.3899,0.0776,3.5086,1.1895,-16.8969
7560,-0.1162,-0.0246,9.8460,-0.1426,-0.3083,0.0900,3.4911,1.1858,-16.8303
7568,-0.1154,-0.0271,9.8515,-0.0759,-0.3209,0.0191,3.4783,1.1788,-16.7717
7576,-0.1228,-0.0252,9.8510,-0.1747,-0.1943,0.0687,3.4590,1.1770,-16.7101
7584,-0.1112,-0.0280,9.8506,-0.1599,-0.1826,0.0681,3.4488,1.1726,-16.6527
7592,-0.1095,-0.0311,9.8534,-0.1724,-0.1607,0.0303,3.4388,1.1683,-16.5954
7600,-0.1093,-0.0420,9.8600,-0.1284,-0.1771,0.0260,3.4287,1.1704,-16.5353
7608,-0.1081,-0.0451,9.8660,-0.1396,-0.2168,-0.0607,3.4187,1.1725,-16.4753
7616,-0.1044,-0.0442,9.8569,-0.0996,-0.1961,0.0271,3.4062,1.1675,-16.4150
7624,-0.1055,-0.0502,9.8509,-0.0561,-0.1816,-0.0303,3.3937,1.1625,-16.3549
7632,-0.1039,-0.0471,9.8559,-0.1131,-0.1864,-0.0506,3.3812,1.1575,-16.2951
7640,-0.1033,-0.0492,9.8623,-0.0557,-0.1164,-0.0619,3.3701,1.1545,-16.2361
7648,-0.0950,-0.0557,9.8613,-0.0941,-0.1347,-0.0835,3.3559,1.1502,-16.1794
7656,-0.0961,-0.0583,9.8717,-0.0748,-0.0963,-0.0187,3.3423,1.1434,-16.1215
7664,-0.0976,-0.0699,9.8757,-0.1177,-0.1129,0.0165,3.3289,1.1366,-16.0640
7672,-0.0899,-0.0557,9.8752,-0.1640,-0.1074,-0.0484,3.3205,1.1305,-16.0091
7680,-0.0865,-0.0575,9.8898,-0.2350,-0.0861,-0.1052,3.3046,1.1244,-15.9533
7688,-0.0871,-0.0568,9.8879,-0.2202,-0.1138,-0.0635,3.2938,1.1152,-15.8989
7696,-0.1035,-0.0507,9.8781,-0.1874,-0.1429,-0.0583,3.2830,1.1061,-15.8448
7704,-0.1148,-0.0434,9.8719,-0.2227,-0.1228,-0.0453,3.2723,1.0969,-15.7909
7712,-0.1164,-0.0477,9.8708,-0.3311,-0.1515,-0.0836,3.2654,1.0904,-15.7334
7720,-0.1146,-0.0375,9.8667,-0.2801,-0.1336,-0.0988,3.2586,1.0839,-15.6762
7728,-0.1125,-0.0564,9.8630,-0.3807,-0.1752,-0.1401,3.2448,1.0799,-15.6167
7736,-0.1174,-0.0600,9.8568,-0.3009,-0.1723,-0.2222,3.2312,1.0759,-15.5574
7744,-0.1132,-0.0663,9.8581,-0.2726,-0.1989,-0.2607,3.2175,1.0719,-15.4984
7752,-0.1076,-0.0680,9.8566,-0.2348,-0.1923,-0.1855,3.2090,1.0673,-15.4434
7760,-0.1153,-0.0577,9.8570,-0.1987,-0.2633,-0.2176,3.1930,1.0609,-15.3886
7768,-0.1200,-0.0574,9.8551,-0.2148,-0.3393,-0.1470,3.1808,1.0601,-15.3366
7776,-0.1174,-0.0531,9.8543,-0.2303,-0.2705,-0.2342,3.1686,1.0593,-15.2847
7784,-0.1228,-0.0556,9.8435,-0.2157,-0.3381,-0.1708,3.1608,1.0554,-15.2330
7792,-0.1245,-0.0582,9.8479,-0.2737,-0.3068,-0.2169,3.1451,1.0521,-15.1791
7800,-0.1242,-0.0666,9.8437,-0.2359,-0.1568,-0.2743,3.1337,1.0476,-15.1241
7808,-0.1171,-0.0673,9.8389,-0.1944,-0.1920,-0.3132,3.1224,1.0431,-15.0694
7816,-0.1139,-0.0566,9.8365,-0.1548,-0.2844,-0.2438,3.1111,1.0387,-15.0149
7824,-0.1132,-0.0528,9.8310,-0.1622,-0.2634,-0.2520,3.1029,1.0293,-14.9606
7832,-0.1113,-0.0526,9.8316,-0.1452,-0.3340,-0.2439,3.0947,1.0200,-14.9066
7840,-0.1113,-0.0533,9.8353,-0.1077,-0.3135,-0.2975,3.0891,1.0224,-14.8534
7848,-0.1114,-0.0539,9.8364,-0.0452,-0.3739,-0.3407,3.0779,1.0180,-14.8028
7856,-0.1110,-0.0586,9.8401,-0.0147,-0.2823,-0.2274,3.0668,1.0137,-14.7524
7864,-0.1147,-0.0573,9.8379,-0.0442,-0.2161,-0.1616,3.0594,1.0112,-14.6998
7872,-0.1112,-0.0658,9.8447,-0.0431,-0.2461,-0.1095,3.0441,1.0111,-14.6511
7880,-0.1122,-0.0679,9.8394,-0.1060,-0.2881,-0.2036,3.0319,1.0019,-14.6044
7888,-0.1113,-0.0681,9.8410,-0.0489,-0.2882,-0.1523,3.0192,0.9982,-14.5511
7896,-0.1191,-0.0696,9.8356,-0.0716,-0.2751,-0.1565,3.0065,0.9946,-14.4981
7904,-0.1188,-0.0686,9.8457,-0.0613,-0.2598,-0.2299,2.9939,0.9891,-14.4484
7912,-0.1305,-0.0678,9.8535,-0.0968,-0.2212,-0.1561,2.9868,0.9794,-14.3970
7920,-0.1223,-0.0502,9.8570,-0.0480,-0.3016,0.0505,2.9797,0.9698,-14.3458
7928,-0.1268,-0.0548,9.8587,-0.0814,-0.3199,0.1094,2.9702,0.9675,-14.2967
7936,-0.1281,-0.0598,9.8680,-0.0520,-0.2920,0.0777,2.9607,0.9651,-14.2477
7944,-0.1302,-0.0553,9.8751,-0.0452,-0.3800,0.0741,2.9513,0.9628,-14.1989
7952,-0.1307,-0.0562,9.8719,-0.0254,-0.3335,0.1293,2.9377,0.9568,-14.1468
7960,-0.1285,-0.0510,9.8727,-0.0065,-0.3317,0.1474,2.9284,0.9533,-14.0954
7968,-0.1314,-0.0473,9.8693,-0.0310,-0.2846,0.0767,2.9202,0.9498,-14.0443
7976,-0.1319,-0.0467,9.8680,-0.0758,-0.3036,0.0251,2.9122,0.9493,-13.9963
7984,-0.1295,-0.0452,9.8687,-0.0786,-0.3644,-0.0242,2.9017,0.9464,-13.9473
7992,-0.1210,-0.0452,9.8684,-0.0600,-0.4626,0.0273,2.8979,0.9412,-13.8980
8000,-0.1174,-0.0407,9.8641,-0.0956,-0.4205,0.0818,2.8911,0.9330,-13.8535
8008,-0.1141,-0.0366,9.8665,-0.0362,-0.5642,0.0540,2.8843,0.9248,-13.8092
8016,-0.1084,-0.0315,9.8723,-0.0515,-0.4483,0.0061,2.8775,0.9167,-13.7652
8024,-0.1106,-0.0310,9.8713,-0.0127,-0.4148,-0.0077,2.8637,0.9181,-13.7165
8032,-0.1143,-0.0256,9.8698,-0.0583,-0.3961,0.0030,2.8499,0.9194,-13.6680
8040,-0.1205,-0.0275,9.8680,-0.0673,-0.4075,0.0800,2.8427,0.9119,-13.6204
8048,-0.1119,-0.0297,9.8810,-0.1345,-0.3678,0.0229,2.8355,0.9045,-13.5729
8056,-0.1010,-0.0284,9.8818,-0.0974,-0.4418,0.0670,2.8277,0.9012,-13.5250
8064,-0.1016,-0.0296,9.8835,-0.0513,-0.3633,0.0292,2.8176,0.8973,-13.4779
8072,-0.0993,-0.0297,9.8791,0.0034,-0.2855,0.0357,2.8094,0.8899,-13.4339
8080,-0.0983,-0.0290,9.8723,0.0185,-0.3284,0.1192,2.7988,0.8866,-13.3836
8088,-0.0882,-0.0324,9.8690,-0.0018,-0.3695,0.1858,2.7882,0.8834,-13.3335
8096,-0.0913,-0.0313,9.8655,-0.0879,-0.4035,0.1134,2.7783,0.8796,-13.2848
8104,-0.0855,-0.0304,9.8746,-0.0956,-0.4253,0.0869,2.7713,0.8740,-13.2416
8112,-0.0994,-0.0287,9.8706,-0.1269,-0.3421,0.1149,2.7614,0.8668,-13.1973
8120,-0.0942,-0.0252,9.8692,-0.1195,-0.3692,0.1176,2.7516,0.8595,-13.1532
8128,-0.0959,-0.0367,9.8707,-0.1284,-0.3605,0.1069,2.7419,0.8523,-13.1093
8136,-0.0892,-0.0403,9.8665,-0.1956,-0.3202,0.0273,2.7350,0.8486,-13.0638
8144,-0.0804,-0.0403,9.8715,-0.1399,-0.4656,0.1405,2.7282,0.8449,-13.0185
8152,-0.0807,-0.0308,9.8819,-0.2146,-0.4634,0.0355,2.7127,0.8378,-12.9733
8160,-0.0905,-0.0213,9.8803,-0.2327,-0.4505,0.0204,2.6973,0.8307,-12.9284
8168,-0.0880,-0.0363,9.8858,-0.2660,-0.4543,0.0033,2.6901,0.8277,-12.8888
8176,-0.0980,-0.0377,9.8884,-0.3059,-0.4952,0.0935,2.6777,0.8195,-12.8441
8184,-0.0984,-0.0407,9.8767,-0.3467,-0.5716,0.0919,2.6693,0.8165,-12.8019
8192,-0.0924,-0.0320,9.8720,-0.2497,-0.5407,0.0956,2.6593,0.8146,-12.7571
8200,-0.0901,-0.0351,9.8773,-0.2743,-0.5352,0.1179,2.6493,0.8128,-12.7124
8208,-0.0917,-0.0361,9.8644,-0.2524,-0.5566,0.1685,2.6394,0.8110,-12.6736
8216,-0.0923,-0.0375,9.8649,-0.2609,-0.4596,0.1129,2.6294,0.8092,-12.6349
8224,-0.0869,-0.0369,9.8741,-0.2236,-0.4177,0.0997,2.6190,0.8068,-12.5941
8232,-0.0933,-0.0258,9.8692,-0.2867,-0.4255,0.0711,2.6086,0.8044,-12.5534
8240,-0.0955,-0.0300,9.8552,-0.3016,-0.4623,0.1131,2.5983,0.8020,-12.5129
8248,-0.0935,-0.0324,9.8475,-0.3079,-0.4602,0.0999,2.5862,0.7997,-12.4646
8256,-0.0934,-0.0341,9.8479,-0.3326,-0.3675,0.0687,2.5754,0.7967,-12.4227
8264,-0.0856,-0.0315,9.8382,-0.3616,-0.3722,-0.0892,2.5674,0.7950,-12.3782
8272,-0.0931,-0.0438,9.8454,-0.3626,-0.4647,-0.1656,2.5556,0.7932,-12.3338
8280,-0.0935,-0.0348,9.8532,-0.3129,-0.5158,-0.2199,2.5437,0.7965,-12.2913
8288,-0.0866,-0.0368,9.8462,-0.2654,-0.4900,-0.2025,2.5370,0.7964,-12.2501
8296,-0.0808,-0.0458,9.8567,-0.2626,-0.4734,-0.1512,2.5275,0.7935,-12.2073
8304,-0.0737,-0.0430,9.8694,-0.2626,-0.5161,-0.2595,2.5209,0.7934,-12.1619
8312,-0.0660,-0.0446,9.8768,-0.2546,-0.4503,-0.2777,2.5142,0.7933,-12.1167
8320,-0.0567,-0.0484,9.8739,-0.2816,-0.4834,-0.2658,2.5088,0.7831,-12.0744
8328,-0.0610,-0.0495,9.8722,-0.2355,-0.4697,-0.2518,2.5033,0.7729,-12.0324
8336,-0.0626,-0.0491,9.8798,-0.2313,-0.4166,-0.2890,2.4934,0.7724,-11.9899
8344,-0.0705,-0.0506,9.8844,-0.2514,-0.3338,-0.3513,2.4835,0.7718,-11.9476
8352,-0.0731,-0.0478,9.8876,-0.2999,-0.2200,-0.4295,2.4736,0.7712,-11.9054
8360,-0.0841,-0.0449,9.8933,-0.2556,-0.3298,-0.4989,2.4705,0.7706,-11.8634
8368,-0.0899,-0.0367,9.8911,-0.2852,-0.4561,-0.4267,2.4613,0.7661,-11.8266
8376,-0.0897,-0.0212,9.8787,-0.2763,-0.4036,-0.3362,2.4510,0.7661,-11.7827
8384,-0.0909,-0.0175,9.8797,-0.2863,-0.3214,-0.2444,2.4418,0.7616,-11.7406
8392,-0.0961,-0.0152,9.8779,-0.2666,-0.2401,-0.1940,2.4327,0.7572,-11.6986
8400,-0.0976,-0.0126,9.8731,-0.3358,-0.3224,-0.2764,2.4253,0.7516,-11.6608
8408,-0.0912,-0.0089,9.8797,-0.2926,-0.2544,-0.1899,2.4162,0.7516,-11.6163
8416,-0.0950,-0.0156,9.8724,-0.2726,-0.2107,-0.2218,2.4077,0.7483,-11.5743
8424,-0.0943,-0.0171,9.8654,-0.3229,-0.2169,-0.1883,2.4010,0.7434,-11.5336
8432,-0.1074,-0.0166,9.8786,-0.3149,-0.1589,-0.0870,2.3942,0.7384,-11.4930
8440,-0.1128,-0.0111,9.8769,-0.3953,-0.1194,-0.0354,2.3875,0.7335,-11.4526
8448,-0.1209,-0.0108,9.8754,-0.2908,-0.2043,-0.0341,2.3808,0.7314,-11.4067
8456,-0.1219,-0.0031,9.8740,-0.2603,-0.1868,-0.0649,2.3741,0.7292,-11.3611
8464,-0.1205,0.0152,9.8805,-0.2257,-0.2074,-0.1076,2.3680,0.7221,-11.3206
8472,-0.1233,0.0026,9.8759,-0.2540,-0.1604,-0.1005,2.3619,0.7151,-11.2803
8480,-0.1263,0.0057,9.8690,-0.2384,-0.2115,-0.0643,2.3553,0.7147,-11.2434
8488,-0.1231,-0.0064,9.8651,-0.2768,-0.2017,-0.0671,2.3438,0.7131,-11.2033
8496,-0.1261,-0.0024,9.8633,-0.3269,-0.2670,-0.0590,2.3383,0.7111,-11.1629
8504,-0.1198,-0.0020,9.8649,-0.3134,-0.3081,-0.1047,2.3329,0.7090,-11.1226
8512,-0.1245,-0.0015,9.8654,-0.3698,-0.3634,0.0677,2.3264,0.7070,-11.0835
8520,-0.1310,-0.0039,9.8591,-0.3252,-0.3976,0.0991,2.3205,0.7071,-11.0496
8528,-0.1301,-0.0028,9.8652,-0.2664,-0.4623,0.2332,2.3146,0.7073,-11.0158
8536,-0.1366,-0.0074,9.8620,-0.2956,-0.4922,0.1268,2.3076,0.7019,-10.9793
8544,-0.1224,-0.0192,9.8719,-0.3022,-0.4194,0.1423,2.3006,0.6966,-10.9430
8552,-0.1195,-0.0317,9.8905,-0.3351,-0.4138,0.0266,2.2937,0.6913,-10.9068
8560,-0.1188,-0.0171,9.8945,-0.2866,-0.4805,-0.0015,2.2846,0.6866,-10.8697
8568,-0.1195,-0.0239,9.8890,-0.3042,-0.3949,-0.0630,2.2766,0.6803,-10.8261
8576,-0.1233,-0.0182,9.8818,-0.2891,-0.2651,-0.0392,2.2670,0.6761,-10.7931
8584,-0.1136,-0.0176,9.8843,-0.2960,-0.1863,-0.0003,2.2575,0.6720,-10.7602
8592,-0.0988,-0.0162,9.8817,-0.2812,-0.1989,0.0421,2.2513,0.6701,-10.7225
8600,-0.0928,-0.0176,9.8829,-0.2990,-0.3070,0.1307,2.2445,0.6660,-10.6844
8608,-0.0992,-0.0184,9.8749,-0.3401,-0.1783,0.1301,2.2280,0.6636,-10.6491
8616,-0.1017,-0.0224,9.8726,-0.3367,-0.1246,0.1348,2.2186,0.6611,-10.6097
8624,-0.1027,-0.0278,9.8606,-0.3068,-0.2440,0.1607,2.2093,0.6587,-10.5704
8632,-0.0990,-0.0294,9.8588,-0.2889,-0.2781,0.1081,2.2044,0.6541,-10.5345
8640,-0.1021,-0.0269,9.8622,-0.1811,-0.2360,0.0685,2.1995,0.6495,-10.4987
8648,-0.1048,-0.0223,9.8675,-0.1073,-0.2731,0.1906,2.1854,0.6493,-10.4609
8656,-0.0996,-0.0236,9.8578,-0.1061,-0.2873,0.0673,2.1714,0.6491,-10.4232
8664,-0.0980,-0.0225,9.8631,-0.0890,-0.2901,0.0375,2.1574,0.6489,-10.3857
8672,-0.1152,-0.0256,9.8674,-0.1286,-0.2236,-0.0471,2.1549,0.6438,-10.3516
8680,-0.1081,-0.0211,9.8750,-0.1398,-0.2186,-0.0372,2.1475,0.6436,-10.3154
8688,-0.1002,-0.0261,9.8655,-0.1558,-0.1924,-0.0572,2.1428,0.6417,-10.2793
8696,-0.1009,-0.0189,9.8614,-0.1579,-0.2021,-0.0896,2.1382,0.6399,-10.2434
8704,-0.1056,-0.0278,9.8572,-0.1891,-0.1741,-0.0806,2.1336,0.6311,-10.2087
8712,-0.1126,-0.0231,9.8544,-0.1550,-0.2219,-0.0479,2.1317,0.6266,-10.1768
8720,-0.1020,-0.0175,9.8546,-0.1277,-0.2943,-0.0034,2.1261,0.6248,-10.1424
8728,-0.1066,-0.0201,9.8383,-0.1870,-0.2302,-0.0782,2.1204,0.6231,-10.1080
8736,-0.1066,-0.0189,9.8441,-0.2249,-0.2356,-0.1816,2.1149,0.6213,-10.0738
8744,-0.1094,-0.0228,9.8480,-0.2213,-0.0860,-0.1793,2.1104,0.6222,-10.0360
8752,-0.1115,-0.0291,9.8524,-0.2071,-0.1030,-0.2250,2.1059,0.6232,-9.9983
8760,-0.1060,-0.0388,9.8623,-0.2148,-0.2020,-0.2634,2.0972,0.6219,-9.9693
8768,-0.1098,-0.0313,9.8603,-0.2303,-0.2032,-0.2788,2.0885,0.6207,-9.9404
8776,-0.1081,-0.0221,9.8572,-0.2184,-0.2098,-0.3015,2.0799,0.6195,-9.9116
8784,-0.1035,-0.0189,9.8535,-0.1856,-0.2000,-0.3605,2.0729,0.6178,-9.8781
8792,-0.1020,-0.0219,9.8478,-0.2077,-0.1214,-0.3983,2.0654,0.6155,-9.8458
8800,-0.1007,-0.0137,9.8513,-0.1914,-0.1049,-0.4371,2.0505,0.6068,-9.8104
8808,-0.0867,-0.0185,9.8522,-0.2719,-0.0437,-0.3596,2.0357,0.5982,-9.7751
8816,-0.0986,-0.0288,9.8485,-0.1862,-0.1559,-0.2934,2.0262,0.5954,-9.7410
8824,-0.1145,-0.0195,9.8588,-0.2188,-0.1219,-0.3022,2.0163,0.5890,-9.7023
8832,-0.1079,-0.0279,9.8690,-0.1541,-0.0440,-0.2225,2.0111,0.5820,-9.6685
8840,-0.1132,-0.0241,9.8778,-0.2149,-0.0068,-0.3144,2.0061,0.5751,-9.6348
8848,-0.1218,-0.0147,9.8589,-0.2276,-0.0220,-0.3008,2.0010,0.5682,-9.6013
8856,-0.1163,-0.0136,9.8559,-0.1118,-0.1511,-0.3493,1.9944,0.5693,-9.5641
8864,-0.1199,-0.0079,9.8554,-0.1024,-0.1439,-0.3155,1.9878,0.5703,-9.5271
8872,-0.1142,-0.0088,9.8587,-0.1388,-0.0864,-0.3953,1.9801,0.5687,-9.4939
8880,-0.1158,-0.0013,9.8671,-0.1175,0.0486,-0.5729,1.9736,0.5661,-9.4609
8888,-0.1163,-0.0060,9.8606,-0.1425,0.0097,-0.6441,1.9671,0.5635,-9.4279
8896,-0.1259,-0.0075,9.8529,-0.1611,-0.0355,-0.6722,1.9617,0.5598,-9.3957
8904,-0.1300,-0.0188,9.8482,-0.1789,-0.0920,-0.6910,1.9568,0.5572,-9.3603
8912,-0.1251,-0.0227,9.8489,-0.1959,-0.0475,-0.7490,1.9504,0.5557,-9.3251
8920,-0.1302,-0.0108,9.8519,-0.1855,-0.0421,-0.7485,1.9451,0.5510,-9.2948
8928,-0.1212,-0.0136,9.8491,-0.1916,-0.0824,-0.6253,1.9398,0.5463,-9.2645
8936,-0.1198,-0.0153,9.8561,-0.2027,-0.0916,-0.4196,1.9303,0.5453,-9.2276
8944,-0.1081,-0.0141,9.8466,-0.1466,-0.1457,-0.4468,1.9235,0.5433,-9.1934
8952,-0.1026,-0.0189,9.8475,-0.1224,-0.0987,-0.4141,1.9167,0.5413,-9.1593
8960,-0.0989,-0.0191,9.8442,-0.0992,-0.0379,-0.3989,1.9131,0.5387,-9.1248
8968,-0.0965,-0.0267,9.8403,-0.0904,-0.0036,-0.3844,1.9095,0.5362,-9.0905
8976,-0.0943,-0.0266,9.8523,-0.1699,0.0317,-0.3571,1.9059,0.5337,-9.0563
8984,-0.0919,-0.0316,9.8527,-0.2513,0.0043,-0.3871,1.8966,0.5343,-9.0227
8992,-0.0920,-0.0366,9.8594,-0.2651,-0.0007,-0.4931,1.8878,0.5329,-8.9913
9000,-0.0834,-0.0279,9.8563,-0.2570,-0.0241,-0.4131,1.8838,0.5314,-8.9601
9008,-0.0788,-0.0336,9.8399,-0.2706,0.0255,-0.4379,1.8798,0.5305,-8.9310
9016,-0.0892,-0.0261,9.8469,-0.2649,0.0463,-0.3870,1.8754,0.5290,-8.8989
9024,-0.0795,-0.0252,9.8437,-0.2382,0.0075,-0.3596,1.8678,0.5297,-8.8727
9032,-0.0840,-0.0249,9.8499,-0.2179,0.0131,-0.3255,1.8633,0.5272,-8.8430
9040,-0.0866,-0.0246,9.8523,-0.1799,0.0157,-0.1675,1.8589,0.5247,-8.8133
9048,-0.0936,-0.0243,9.8581,-0.2235,0.0449,-0.1337,1.8545,0.5222,-8.7837
9056,-0.0917,-0.0295,9.8647,-0.1799,0.0169,-0.0801,1.8486,0.5250,-8.7543
9064,-0.0749,-0.0337,9.8580,-0.1835,-0.0446,-0.0342,1.8427,0.5277,-8.7249
9072,-0.0825,-0.0367,9.8601,-0.2270,-0.0181,-0.0809,1.8326,0.5242,-8.6977
9080,-0.0835,-0.0416,9.8543,-0.2072,0.0446,-0.2109,1.8226,0.5207,-8.6707
9088,-0.0816,-0.0347,9.8603,-0.1590,-0.0048,-0.1886,1.8179,0.5172,-8.6411
9096,-0.0772,-0.0380,9.8581,-0.1769,-0.0627,-0.2979,1.8064,0.5126,-8.6142
9104,-0.0910,-0.0424,9.8570,-0.1593,-0.0567,-0.2851,1.8022,0.5102,-8.5869
9112,-0.0971,-0.0582,9.8455,-0.2118,-0.0804,-0.3262,1.8012,0.5135,-8.5550
9120,-0.0916,-0.0606,9.8288,-0.1820,-0.2070,-0.3015,1.8001,0.5168,-8.5232
9128,-0.0931,-0.0601,9.8300,-0.2816,-0.1627,-0.4192,1.7908,0.5154,-8.4926
9136,-0.0972,-0.0582,9.8339,-0.2568,-0.2217,-0.4251,1.7877,0.5114,-8.4632
9144,-0.1004,-0.0638,9.8437,-0.2463,-0.2487,-0.5001,1.7811,0.5100,-8.4338
9152,-0.1010,-0.0648,9.8494,-0.2231,-0.2960,-0.4012,1.7744,0.5086,-8.4045
9160,-0.1039,-0.0685,9.8510,-0.2328,-0.3545,-0.2825,1.7678,0.5072,-8.3754
9168,-0.1083,-0.0704,9.8515,-0.1941,-0.3891,-0.3424,1.7638,0.5048,-8.3473
9176,-0.1209,-0.0630,9.8501,-0.1331,-0.4222,-0.3623,1.7598,0.5024,-8.3194
9184,-0.1282,-0.0563,9.8607,-0.1548,-0.4991,-0.3627,1.7466,0.5000,-8.2942
9192,-0.1399,-0.0576,9.8534,-0.1702,-0.4341,-0.2964,1.7333,0.4976,-8.2690
9200,-0.1409,-0.0560,9.8564,-0.1742,-0.4172,-0.2304,1.7331,0.4962,-8.2414
9208,-0.1422,-0.0568,9.8618,-0.2074,-0.3984,-0.1992,1.7292,0.4965,-8.2128
9216,-0.1279,-0.0452,9.8636,-0.2339,-0.3511,-0.2440,1.7264,0.4951,-8.1833
9224,-0.1269,-0.0498,9.8679,-0.1578,-0.3218,-0.1856,1.7267,0.4891,-8.1580
9232,-0.1359,-0.0485,9.8677,-0.1864,-0.3205,-0.2044,1.7270,0.4832,-8.1328
9240,-0.1359,-0.0377,9.8729,-0.1631,-0.3833,-0.1743,1.7237,0.4814,-8.1015
9248,-0.1277,-0.0467,9.8745,-0.1674,-0.4353,-0.2283,1.7204,0.4796,-8.0703
9256,-0.1257,-0.0484,9.8737,-0.1636,-0.3863,-0.0585,1.7146,0.4752,-8.0357
9264,-0.1171,-0.0508,9.8761,-0.0933,-0.3875,-0.1282,1.7087,0.4708,-8.0011
9272,-0.1175,-0.0554,9.8747,-0.1194,-0.4660,-0.1602,1.7030,0.4665,-7.9667
9280,-0.1252,-0.0540,9.8738,-0.1363,-0.4451,-0.1481,1.6997,0.4688,-7.9386
9288,-0.1244,-0.0636,9.8717,-0.0992,-0.3664,-0.0672,1.6966,0.4712,-7.9106
9296,-0.1145,-0.0596,9.8711,-0.1223,-0.3391,-0.1338,1.6934,0.4668,-7.8863
9304,-0.1074,-0.0587,9.8665,-0.1498,-0.3238,-0.2775,1.6825,0.4625,-7.8621
9312,-0.1138,-0.0607,9.8659,-0.1254,-0.2957,-0.3003,1.6717,0.4618,-7.8370
9320,-0.1145,-0.0692,9.8696,-0.1927,-0.2742,-0.3434,1.6697,0.4575,-7.8078
9328,-0.1038,-0.0706,9.8737,-0.1451,-0.2696,-0.2993,1.6620,0.4553,-7.7798
9336,-0.1091,-0.0787,9.8780,-0.1396,-0.3346,-0.1957,1.6564,0.4535,-7.7560
9344,-0.1043,-0.0838,9.8823,-0.1690,-0.3008,-0.0541,1.6508,0.4518,-7.7323
9352,-0.1010,-0.0751,9.8812,-0.1758,-0.2737,-0.1053,1.6483,0.4455,-7.7045
9360,-0.0906,-0.0778,9.8856,-0.1502,-0.3732,-0.2396,1.6459,0.4392,-7.6769
9368,-0.0976,-0.0697,9.8746,-0.2085,-0.4336,-0.1840,1.6398,0.4314,-7.6530
9376,-0.1017,-0.0601,9.8733,-0.1815,-0.3741,-0.1842,1.6338,0.4237,-7.6291
9384,-0.1027,-0.0519,9.8771,-0.1611,-0.3198,-0.1950,1.6278,0.4159,-7.6053
9392,-0.1013,-0.0431,9.8742,-0.1815,-0.3320,-0.1174,1.6188,0.4103,-7.5760
9400,-0.1059,-0.0479,9.8625,-0.2011,-0.3115,-0.1525,1.6154,0.4107,-7.5535
9408,-0.1019,-0.0403,9.8746,-0.1025,-0.2414,-0.1647,1.6121,0.4112,-7.5249
9416,-0.1079,-0.0417,9.8879,-0.1068,-0.1769,-0.2884,1.6057,0.4122,-7.5010
9424,-0.1133,-0.0467,9.8876,-0.1883,-0.2833,-0.2494,1.5993,0.4132,-7.4772
9432,-0.1072,-0.0333,9.8823,-0.2289,-0.1610,-0.1187,1.5960,0.4111,-7.4504
9440,-0.1072,-0.0231,9.8830,-0.2864,-0.2147,-0.0818,1.5922,0.4070,-7.4253
9448,-0.0967,-0.0189,9.8923,-0.3440,-0.1461,0.0362,1.5894,0.4039,-7.3992
9456,-0.1063,-0.0168,9.8870,-0.4071,-0.1978,0.0078,1.5811,0.4003,-7.3737
9464,-0.0968,-0.0241,9.8873,-0.4648,-0.2473,-0.0328,1.5728,0.3967,-7.3484
9472,-0.0960,-0.0275,9.8866,-0.4773,-0.2119,-0.0343,1.5645,0.3932,-7.3231
9480,-0.0902,-0.0333,9.8837,-0.4546,-0.1487,-0.0544,1.5583,0.3891,-7.3024
9488,-0.0977,-0.0372,9.8874,-0.4809,-0.1577,-0.0682,1.5521,0.3851,-7.2819
9496,-0.1096,-0.0385,9.8945,-0.5140,-0.1315,0.0385,1.5495,0.3862,-7.2574
9504,-0.1084,-0.0359,9.8904,-0.5190,-0.0159,0.0313,1.5469,0.3872,-7.2329
9512,-0.1024,-0.0323,9.8780,-0.5345,-0.0493,0.0723,1.5408,0.3923,-7.2111
9520,-0.1096,-0.0404,9.8686,-0.5039,-0.0893,-0.0244,1.5357,0.3933,-7.1884
9528,-0.1053,-0.0381,9.8715,-0.4801,-0.1035,-0.0102,1.5286,0.3923,-7.1647
9536,-0.0868,-0.0411,9.8805,-0.4412,-0.0744,-0.0207,1.5215,0.3913,-7.1411
9544,-0.0901,-0.0424,9.8723,-0.4307,-0.0785,0.0760,1.5190,0.3832,-7.1171
9552,-0.0880,-0.0550,9.8662,-0.4341,-0.1092,0.0404,1.5135,0.3782,-7.0962
9560,-0.0899,-0.0500,9.8634,-0.3999,-0.0905,0.2011,1.5080,0.3732,-7.0754
9568,-0.0828,-0.0491,9.8691,-0.4073,-0.0620,0.2561,1.5061,0.3723,-7.0521
9576,-0.0920,-0.0570,9.8651,-0.3636,-0.0747,0.3780,1.5042,0.3714,-7.0290
9584,-0.0989,-0.0509,9.8697,-0.3805,-0.0736,0.3719,1.5023,0.3704,-7.0059
9592,-0.0965,-0.0504,9.8721,-0.3487,-0.0085,0.2994,1.4943,0.3695,-6.9829
9600,-0.0934,-0.0476,9.8665,-0.3423,-0.0155,0.3714,1.4864,0.3686,-6.9599
9608,-0.0992,-0.0520,9.8677,-0.3388,-0.0223,0.2642,1.4840,0.3671,-6.9366
9616,-0.0922,-0.0514,9.8707,-0.3302,0.0112,0.3111,1.4817,0.3657,-6.9133
9624,-0.1005,-0.0581,9.8689,-0.3565,-0.0500,0.2866,1.4743,0.3653,-6.8927
9632,-0.0952,-0.0514,9.8581,-0.3471,-0.1033,0.2818,1.4665,0.3619,-6.8680
9640,-0.1063,-0.0481,9.8597,-0.2981,-0.0555,0.1839,1.4612,0.3635,-6.8435
9648,-0.0986,-0.0547,9.8690,-0.2219,-0.1085,0.1783,1.4579,0.3621,-6.8231
9656,-0.0990,-0.0438,9.8691,-0.2983,-0.1139,0.0370,1.4547,0.3607,-6.8028
9664,-0.1043,-0.0458,9.8651,-0.3208,-0.0337,0.0244,1.4514,0.3568,-6.7790
9672,-0.1155,-0.0421,9.8615,-0.3582,0.0084,-0.0649,1.4482,0.3529,-6.7553
9680,-0.1215,-0.0352,9.8533,-0.3887,-0.0208,-0.0543,1.4430,0.3520,-6.7312
9688,-0.1252,-0.0188,9.8453,-0.3672,-0.0300,-0.0121,1.4378,0.3511,-6.7071
9696,-0.1339,-0.0145,9.8514,-0.3653,-0.0148,0.0842,1.4326,0.3503,-6.6832
9704,-0.1318,-0.0102,9.8609,-0.4275,-0.0162,0.0883,1.4279,0.3499,-6.6573
9712,-0.1358,-0.0099,9.8714,-0.3430,0.0144,0.1428,1.4268,0.3470,-6.6376
9720,-0.1194,-0.0092,9.8645,-0.3715,0.0356,0.1070,1.4237,0.3497,-6.6169
9728,-0.1205,-0.0031,9.8682,-0.4067,0.0186,0.2141,1.4206,0.3523,-6.5963
9736,-0.1120,-0.0076,9.8748,-0.4324,0.0077,0.3245,1.4125,0.3509,-6.5743
9744,-0.1074,-0.0153,9.8676,-0.4037,-0.0107,0.3554,1.4074,0.3501,-6.5508
9752,-0.1133,-0.0136,9.8606,-0.4268,-0.0443,0.2756,1.4043,0.3552,-6.5279
9760,-0.1018,-0.0226,9.8560,-0.4437,-0.0525,0.2287,1.3998,0.3513,-6.5051
9768,-0.0995,-0.0252,9.8606,-0.4011,-0.1323,0.2318,1.3953,0.3475,-6.4824
9776,-0.0957,-0.0271,9.8511,-0.4270,-0.1420,0.2081,1.3943,0.3501,-6.4608
9784,-0.0972,-0.0321,9.8547,-0.3585,-0.2525,0.1614,1.3933,0.3527,-6.4392
9792,-0.1009,-0.0283,9.8576,-0.3517,-0.2569,0.1701,1.3938,0.3524,-6.4178
9800,-0.1038,-0.0295,9.8565,-0.3105,-0.2158,0.1838,1.3943,0.3520,-6.3964
9808,-0.1209,-0.0397,9.8560,-0.2577,-0.2431,0.0848,1.3948,0.3516,-6.3750
9816,-0.1123,-0.0489,9.8674,-0.2633,-0.3066,0.1769,1.3878,0.3502,-6.3553
9824,-0.1164,-0.0495,9.8714,-0.2312,-0.3273,0.0996,1.3828,0.3469,-6.3326
9832,-0.1137,-0.0500,9.8667,-0.3046,-0.3444,0.1723,1.3799,0.3440,-6.3140
9840,-0.1112,-0.0482,9.8680,-0.3641,-0.3368,0.2072,1.3769,0.3412,-6.2955
9848,-0.1254,-0.0439,9.8678,-0.3224,-0.4468,0.2059,1.3740,0.3373,-6.2720
9856,-0.1154,-0.0417,9.8648,-0.3464,-0.4454,0.0740,1.3701,0.3315,-6.2481
9864,-0.1233,-0.0375,9.8608,-0.3294,-0.3667,0.2012,1.3622,0.3342,-6.2214
9872,-0.1199,-0.0474,9.8576,-0.3799,-0.3821,0.1815,1.3544,0.3369,-6.1947
9880,-0.1224,-0.0477,9.8712,-0.3667,-0.4555,0.2107,1.3465,0.3396,-6.1681
9888,-0.1072,-0.0498,9.8802,-0.3809,-0.4723,0.1372,1.3417,0.3402,-6.1496
9896,-0.1145,-0.0471,9.8683,-0.3917,-0.4031,0.0883,1.3369,0.3409,-6.1311
9904,-0.1106,-0.0542,9.8694,-0.4047,-0.4543,0.0682,1.3351,0.3370,-6.1132
9912,-0.1135,-0.0543,9.8755,-0.3425,-0.4525,0.0890,1.3334,0.3332,-6.0954
9920,-0.1119,-0.0512,9.8718,-0.3497,-0.5468,0.1302,1.3316,0.3294,-6.0776
9928,-0.1229,-0.0506,9.8730,-0.3939,-0.5090,0.0843,1.3298,0.3257,-6.0574
9936,-0.1296,-0.0511,9.8851,-0.3882,-0.5448,0.1070,1.3286,0.3249,-6.0358
9944,-0.1224,-0.0665,9.8787,-0.3320,-0.5284,-0.0365,1.3248,0.3216,-6.0187
9952,-0.1132,-0.0608,9.8793,-0.3103,-0.5101,-0.0219,1.3221,0.3228,-6.0012
9960,-0.1122,-0.0635,9.8702,-0.3962,-0.4926,-0.0345,1.3194,0.3240,-5.9838
9968,-0.1130,-0.0531,9.8703,-0.4357,-0.6198,-0.0385,1.3152,0.3237,-5.9689
9976,-0.1193,-0.0374,9.8571,-0.4682,-0.6588,-0.1411,1.3105,0.3269,-5.9461
9984,-0.1067,-0.0559,9.8561,-0.3925,-0.6508,-0.1005,1.3058,0.3301,-5.9234
9992,-0.1100,-0.0449,9.8583,-0.4669,-0.5364,-0.0670,1.3022,0.3308,-5.9042
10000,-0.1056,-0.0472,9.8609,-0.4259,-0.5417,-0.0963,1.2986,0.3314,-5.8851
10008,-0.1085,-0.0389,9.8631,-0.3175,-0.5548,-0.1936,1.2949,0.3321,-5.8661
10016,-0.1083,-0.0272,9.8620,-0.3631,-0.6206,-0.1827,1.2874,0.3308,-5.8457
10024,-0.1109,-0.0476,9.8692,-0.2520,-0.6409,-0.1537,1.2808,0.3305,-5.8263
10032,-0.1074,-0.0442,9.8629,-0.3618,-0.7003,-0.0032,1.2782,0.3302,-5.8070
10040,-0.0964,-0.0507,9.8714,-0.3735,-0.7011,0.1061,1.2757,0.3289,-5.7892
10048,-0.0929,-0.0589,9.8736,-0.3527,-0.6246,0.1039,1.2741,0.3236,-5.7675
10056,-0.1079,-0.0549,9.8624,-0.2607,-0.5887,0.0431,1.2676,0.3263,-5.7499
10064,-0.1078,-0.0453,9.8618,-0.2102,-0.6264,0.0143,1.2661,0.3300,-5.7299
10072,-0.1127,-0.0467,9.8621,-0.1938,-0.5771,0.0001,1.2645,0.3336,-5.7099
10080,-0.1104,-0.0452,9.8634,-0.2208,-0.6153,0.0452,1.2606,0.3323,-5.6950
10088,-0.1014,-0.0412,9.8590,-0.2066,-0.6118,0.1257,1.2610,0.3290,-5.6731
10096,-0.1065,-0.0530,9.8642,-0.2064,-0.6325,0.0986,1.2615,0.3257,-5.6514
10104,-0.0974,-0.0541,9.8730,-0.2329,-0.5456,0.1847,1.2595,0.3210,-5.6297
10112,-0.0924,-0.0455,9.8691,-0.2982,-0.4785,0.2217,1.2575,0.3163,-5.6081
10120,-0.0906,-0.0451,9.8820,-0.3660,-0.5024,0.2278,1.2555,0.3116,-5.5866
10128,-0.0922,-0.0483,9.8768,-0.3001,-0.5305,0.1883,1.2516,0.3054,-5.5681
10136,-0.0881,-0.0444,9.8621,-0.2718,-0.6587,0.2251,1.2496,0.3007,-5.5517
10144,-0.0972,-0.0495,9.8674,-0.3061,-0.5494,0.1911,1.2427,0.3000,-5.5338
10152,-0.1036,-0.0587,9.8518,-0.3202,-0.5328,0.2678,1.2359,0.2993,-5.5160
10160,-0.1112,-0.0524,9.8526,-0.2270,-0.5276,0.1439,1.2344,0.2991,-5.4943
10168,-0.1159,-0.0508,9.8680,-0.2846,-0.4986,0.1907,1.2340,0.2979,-5.4762
10176,-0.1150,-0.0540,9.8610,-0.2703,-0.4816,0.1848,1.2316,0.2991,-5.4581
10184,-0.1165,-0.0463,9.8477,-0.2327,-0.4973,0.1764,1.2293,0.3004,-5.4400
10192,-0.1143,-0.0426,9.8504,-0.1566,-0.5123,0.1525,1.2269,0.3017,-5.4221
10200,-0.1145,-0.0607,9.8527,-0.1346,-0.4973,0.1323,1.2255,0.2990,-5.4091
10208,-0.1161,-0.0597,9.8685,-0.1642,-0.5817,0.1289,1.2241,0.2963,-5.3961
10216,-0.1280,-0.0652,9.8683,-0.1845,-0.6464,0.0857,1.2183,0.2971,-5.3788
10224,-0.1273,-0.0656,9.8607,-0.1960,-0.5695,0.1030,1.2125,0.2979,-5.3615
10232,-0.1177,-0.0755,9.8589,-0.2069,-0.4241,0.1036,1.2083,0.2972,-5.3434
10240,-0.1262,-0.0767,9.8564,-0.2413,-0.4903,0.1415,1.2040,0.2955,-5.3218
10248,-0.1230,-0.0929,9.8673,-0.2796,-0.5110,0.1378,1.2007,0.2972,-5.3047
10256,-0.1261,-0.0811,9.8594,-0.2629,-0.4747,0.1475,1.1994,0.2970,-5.2887
10264,-0.1270,-0.0764,9.8504,-0.2922,-0.3814,0.0448,1.1982,0.2968,-5.2727
10272,-0.1328,-0.0666,9.8573,-0.3496,-0.4468,0.0053,1.1974,0.2922,-5.2573
10280,-0.1354,-0.0596,9.8572,-0.3431,-0.4854,-0.0298,1.1917,0.2890,-5.2444
10288,-0.1313,-0.0646,9.8480,-0.3236,-0.4449,-0.0634,1.1894,0.2889,-5.2236
10296,-0.1404,-0.0578,9.8442,-0.3289,-0.4249,-0.1675,1.1872,0.2887,-5.2030
10304,-0.1422,-0.0466,9.8349,-0.3714,-0.3951,-0.2218,1.1850,0.2885,-5.1824
10312,-0.1457,-0.0378,9.8405,-0.4226,-0.3479,-0.2790,1.1789,0.2913,-5.1653
10320,-0.1525,-0.0440,9.8488,-0.3836,-0.2468,-0.3044,1.1727,0.2940,-5.1482
10328,-0.1505,-0.0492,9.8491,-0.3677,-0.2114,-0.2859,1.1681,0.2914,-5.1313
10336,-0.1532,-0.0470,9.8402,-0.4164,-0.3456,-0.3003,1.1665,0.2887,-5.1144
10344,-0.1502,-0.0578,9.8431,-0.3671,-0.2926,-0.1941,1.1648,0.2871,-5.1029
10352,-0.1410,-0.0575,9.8470,-0.3518,-0.2739,-0.1699,1.1636,0.2835,-5.0861
10360,-0.1387,-0.0701,9.8524,-0.3426,-0.2534,0.0453,1.1605,0.2818,-5.0738
10368,-0.1389,-0.0659,9.8601,-0.3124,-0.2097,0.0724,1.1594,0.2831,-5.0546
10376,-0.1391,-0.0621,9.8656,-0.2943,-0.1787,0.2077,1.1582,0.2844,-5.0355
10384,-0.1315,-0.0583,9.8688,-0.2449,-0.1490,0.1211,1.1547,0.2857,-5.0179
10392,-0.1237,-0.0493,9.8671,-0.1790,-0.1846,0.1822,1.1511,0.2870,-5.0004
10400,-0.1244,-0.0426,9.8647,-0.2387,-0.1866,0.0967,1.1480,0.2854,-4.9825
10408,-0.1245,-0.0365,9.8662,-0.1411,-0.1539,0.0815,1.1450,0.2837,-4.9646
10416,-0.1151,-0.0537,9.8598,-0.1704,-0.1759,0.0831,1.1419,0.2821,-4.9468
10424,-0.1185,-0.0580,9.8685,-0.2144,-0.2957,0.0419,1.1389,0.2790,-4.9276
10432,-0.1178,-0.0568,9.8655,-0.1579,-0.3595,0.0265,1.1358,0.2759,-4.9084
10440,-0.1027,-0.0607,9.8696,-0.1971,-0.3219,-0.0309,1.1314,0.2787,-4.8938
10448,-0.1058,-0.0593,9.8765,-0.2213,-0.4112,-0.1711,1.1323,0.2771,-4.8772
