Timestamp_ms,AccX_Filt,AccY_Filt,AccZ_Filt,GyrX_Filt,GyrY_Filt,GyrZ_Filt,MagX_Filt,MagY_Filt,MagZ_Filt
5233,0.0405,-0.0531,9.7296,0.9501,-1.1317,-0.6234,-1.2150,-62.9100,-37.1250
5240,0.0790,-0.0150,9.7316,-0.0825,-0.2517,0.1361,-1.2665,-65.5762,-38.6984
5248,0.0273,-0.0281,9.7339,-0.2859,0.0023,0.7976,-1.6657,-66.1568,-39.3670
5256,0.0086,-0.0050,9.7635,-0.2805,0.3137,0.5009,-1.8289,-66.1437,-39.2096
5264,0.0184,-0.0193,9.7683,-0.0924,0.0820,0.5935,-1.9244,-66.0051,-39.0364
5272,0.0208,-0.0238,9.7881,0.1886,-0.0731,0.2832,-1.9118,-65.7549,-38.7334
5280,0.0148,-0.0147,9.7732,0.2830,-0.1039,0.4982,-1.8790,-65.6101,-38.7364
5288,0.0074,-0.0085,9.7870,0.3225,-0.2611,0.1164,-1.8891,-65.5692,-38.4694
5296,0.0126,-0.0075,9.7888,0.3181,-0.1859,-0.0122,-1.9279,-65.3182,-38.3187
5304,0.0240,-0.0055,9.7903,0.4110,-0.0289,0.0516,-1.9573,-65.0540,-38.1609
5312,0.0312,-0.0049,9.7910,0.3928,-0.3083,0.1931,-1.9798,-65.0234,-38.0389
5320,0.0213,-0.0017,9.7882,0.3610,-0.4160,0.4986,-1.8979,-64.7845,-37.9069
5328,0.0118,-0.0155,9.7960,0.1795,-0.5335,0.6300,-1.8273,-64.5344,-37.7674
5336,0.0159,-0.0046,9.7991,0.1006,-0.4603,0.6513,-1.7655,-64.2760,-37.6223
5344,0.0145,-0.0042,9.8094,0.1006,-0.4470,0.4907,-1.7904,-63.9915,-37.3735
5352,0.0128,0.0076,9.8105,-0.0088,-0.5010,0.5287,-1.8112,-63.7046,-37.1338
5360,0.0181,0.0121,9.8090,-0.0767,-0.4315,0.5205,-1.8810,-63.3548,-36.9809
5368,0.0088,0.0026,9.8014,0.0035,-0.2243,0.4810,-1.9833,-63.0523,-36.7595
5376,0.0106,-0.0016,9.7989,0.0836,-0.1854,0.3404,-2.0738,-62.7507,-36.5434
5384,0.0112,-0.0101,9.7963,0.0734,-0.3494,0.3297,-2.1167,-62.4127,-36.4589
5392,0.0155,0.0021,9.7967,0.0678,-0.2469,0.2542,-2.0762,-62.0866,-36.3239
5400,0.0105,0.0051,9.8050,0.0910,-0.2419,0.1745,-2.0723,-61.7642,-36.1860
5408,0.0004,0.0036,9.7972,-0.0436,-0.1334,0.0631,-2.1068,-61.5037,-36.0263
5416,0.0104,0.0087,9.7989,0.0594,-0.1824,0.0993,-2.1375,-61.2416,-35.8664
5424,0.0147,-0.0015,9.8009,0.1181,-0.1414,0.0034,-2.1410,-60.9903,-35.6823
5432,0.0158,-0.0074,9.8041,0.0520,-0.0415,0.0577,-2.0916,-60.7142,-35.5059
5440,0.0100,-0.0013,9.7927,-0.0030,0.0322,-0.0135,-2.0450,-60.4384,-35.3309
5448,0.0019,-0.0054,9.7953,0.0150,0.0222,-0.0357,-2.0438,-60.1631,-35.1946
5456,0.0102,-0.0123,9.7908,-0.0304,-0.0058,-0.0658,-2.0419,-59.8884,-35.0570
5464,0.0026,-0.0181,9.7927,-0.0084,-0.0352,-0.0204,-2.0395,-59.6144,-34.9183
5472,0.0163,-0.0169,9.7971,-0.0605,-0.0475,-0.0990,-1.9979,-59.3025,-34.7449
5480,0.0233,-0.0190,9.7974,-0.0796,0.1747,-0.0710,-1.9910,-59.0267,-34.5682
5488,0.0272,-0.0305,9.8009,-0.1449,0.1791,-0.0387,-1.9840,-58.7157,-34.4160
5496,0.0198,-0.0181,9.8064,-0.1213,0.2185,-0.0318,-1.9767,-58.4081,-34.2640
5504,0.0027,-0.0224,9.7985,-0.1019,0.1595,0.0623,-1.9694,-58.1466,-34.1123
5512,0.0018,-0.0131,9.7969,-0.0952,0.2832,0.0151,-1.9869,-57.8816,-33.9359
5520,-0.0082,-0.0074,9.7936,-0.0371,0.3312,-0.0554,-1.9827,-57.5769,-33.7816
5528,-0.0022,-0.0113,9.7957,-0.0649,0.3109,-0.1192,-1.9861,-57.3230,-33.6280
5536,-0.0090,-0.0058,9.7911,-0.0259,0.2520,-0.1428,-1.9888,-57.0697,-33.4557
5544,-0.0052,-0.0112,9.7875,-0.0200,0.1453,-0.2612,-1.9834,-56.8095,-33.2851
5552,-0.0094,-0.0121,9.7833,0.0671,0.2408,-0.1713,-1.9778,-56.5505,-33.1160
5560,-0.0074,-0.0101,9.7749,0.1581,0.2223,-0.2229,-1.9578,-56.2891,-32.9593
5568,-0.0128,-0.0142,9.7742,0.1555,0.1964,-0.1773,-1.9382,-56.0290,-32.8035
5576,-0.0082,-0.0207,9.7749,0.1392,0.1746,-0.2588,-1.9191,-55.7703,-32.6487
5584,-0.0144,-0.0361,9.7728,0.1900,0.2063,-0.2478,-1.8971,-55.5229,-32.4915
5592,-0.0078,-0.0478,9.7763,0.1446,0.2779,-0.2401,-1.8822,-55.2602,-32.3354
5600,-0.0068,-0.0429,9.7786,0.1674,0.3681,-0.1888,-1.8932,-55.0247,-32.1900
5608,-0.0114,-0.0458,9.7839,0.1617,0.4155,-0.3127,-1.9034,-54.7899,-32.0453
5616,-0.0105,-0.0474,9.7846,0.2164,0.3814,-0.2885,-1.9160,-54.5372,-31.8890
5624,-0.0061,-0.0430,9.7752,0.2004,0.3107,-0.2954,-1.8914,-54.3160,-31.7399
5632,-0.0003,-0.0367,9.7808,0.2395,0.2460,-0.1604,-1.9031,-54.0478,-31.6154
5640,0.0078,-0.0365,9.7868,0.1844,0.3121,-0.1431,-1.9023,-53.8165,-31.4793
5648,0.0027,-0.0245,9.7795,0.1590,0.2883,-0.1131,-1.9013,-53.5860,-31.3437
5656,0.0027,-0.0222,9.7870,0.1591,0.2087,-0.0519,-1.8804,-53.3339,-31.1805
5664,0.0040,-0.0152,9.7778,0.1403,0.2247,0.1067,-1.8599,-53.0834,-31.0190
5672,-0.0011,-0.0211,9.7649,0.1683,0.2860,0.1174,-1.8615,-52.8237,-30.8697
5680,-0.0094,-0.0146,9.7711,0.1302,0.1744,0.0953,-1.8628,-52.5659,-30.7215
5688,-0.0160,-0.0070,9.7784,0.1317,0.1082,0.0688,-1.8638,-52.3101,-30.5743
5696,-0.0238,-0.0073,9.7833,0.1303,0.1475,0.1243,-1.8465,-52.0716,-30.4539
5704,-0.0104,-0.0058,9.7972,0.1667,0.1716,0.2042,-1.8547,-51.8194,-30.3260
5712,-0.0183,-0.0053,9.7998,0.2069,0.2187,0.1998,-1.8351,-51.5789,-30.1961
5720,-0.0076,-0.0026,9.7967,0.1968,0.1401,0.0989,-1.8159,-51.3399,-30.0668
5728,0.0038,-0.0011,9.7880,0.1738,0.1537,0.0105,-1.7779,-51.1144,-29.9139
5736,0.0105,0.0007,9.7878,0.2324,0.1828,0.1301,-1.7645,-50.8663,-29.7742
5744,0.0075,0.0061,9.7954,0.1434,0.1166,0.1934,-1.7491,-50.6410,-29.6378
5752,0.0070,0.0081,9.7982,0.1201,0.1500,0.2217,-1.7477,-50.4031,-29.5113
5760,-0.0763,-0.0164,9.8057,0.0603,0.1926,0.2970,-1.7462,-50.1668,-29.3855
5768,-0.2893,-0.1580,9.8043,0.0836,0.1261,0.7494,-1.7580,-49.9409,-29.2356
5776,-0.1690,-0.1376,9.7744,0.0013,0.0760,1.3638,-1.7693,-49.7164,-29.0869
5784,-0.1609,-0.0972,9.7505,0.0378,-0.0710,1.9082,-1.7845,-49.4844,-28.9743
5792,-0.2661,-0.1109,9.7552,0.0460,-0.1339,2.3830,-1.7991,-49.2539,-28.8619
5800,-0.2997,-0.0344,9.7163,0.0404,-0.1217,3.0349,-1.8131,-49.0249,-28.7498
5808,-0.3434,-0.0776,9.7106,0.0484,-0.0887,3.9120,-1.8057,-48.8078,-28.6234
5816,-0.4111,-0.0649,9.7547,0.0159,-0.2042,4.7344,-1.7757,-48.5837,-28.5100
5824,-0.3964,0.0246,9.7787,0.2068,-0.2478,5.6837,-1.7667,-48.3609,-28.3807
5832,-0.3502,0.1046,9.7926,0.2476,-0.1852,6.4120,-1.7478,-48.1456,-28.2521
5840,-0.3445,0.1091,9.8175,0.2546,-0.1281,7.0121,-1.7292,-47.9314,-28.1244
5848,-0.3438,0.0836,9.7982,0.2398,-0.0440,7.4575,-1.7286,-47.6969,-27.9935
5856,-0.3573,0.1257,9.7515,0.2044,-0.0091,7.8781,-1.7278,-47.4700,-27.8770
5864,-0.3527,0.1050,9.7671,0.1117,-0.0479,7.9115,-1.7251,-47.2523,-27.7553
5872,-0.3480,0.1468,9.7625,0.2822,-0.0075,7.8874,-1.7223,-47.0360,-27.6343
5880,-0.4554,0.1419,9.7338,0.2849,-0.0382,7.7682,-1.7007,-46.8118,-27.5270
5888,-0.3978,0.0828,9.7156,0.3089,-0.0143,7.6917,-1.6796,-46.5890,-27.4200
5896,-0.3469,0.0930,9.6904,0.4039,-0.0741,7.4289,-1.6570,-46.3788,-27.3025
5904,-0.3606,0.0722,9.7091,0.3613,0.0875,7.0069,-1.6348,-46.1699,-27.1855
5912,-0.2495,0.1710,9.8126,0.1978,0.0900,6.2964,-1.6130,-45.9622,-27.0692
5920,-0.3503,0.1341,9.8971,0.1562,0.0096,6.0868,-1.6093,-45.7645,-26.9570
5928,-0.2717,0.1203,9.8323,0.1618,0.0741,5.6355,-1.5968,-45.5680,-26.8332
5936,-0.3467,0.2391,9.8721,0.1698,0.2800,5.0359,-1.5862,-45.3621,-26.6997
5944,-0.2634,0.2468,9.8918,0.2922,0.3220,4.4332,-1.5843,-45.1489,-26.5793
5952,-0.3023,0.2378,9.8799,0.3026,0.2261,3.8810,-1.5823,-44.9371,-26.4596
5960,-0.2501,0.2934,9.8746,0.2110,0.2785,3.4089,-1.5802,-44.7217,-26.3373
5968,-0.1586,0.2331,9.8070,0.0568,0.3740,2.7228,-1.5682,-44.5228,-26.2257
5976,-0.0709,0.1903,9.8442,0.0908,0.4626,2.0507,-1.5678,-44.3332,-26.1099
5984,-0.0024,0.0993,9.8278,0.0806,0.4700,1.4907,-1.5657,-44.1301,-26.0044
5992,-0.1249,0.1530,9.8320,0.0815,0.3330,1.0166,-1.5636,-43.9282,-25.8994
6000,-0.1146,0.1935,9.8532,-0.0164,0.3727,0.5819,-1.5614,-43.7276,-25.7950
6008,-0.1308,0.1204,9.8136,0.1328,0.4106,0.2143,-1.5418,-43.5298,-25.6815
6016,-0.0252,0.1758,9.8675,0.0167,0.5136,-0.2306,-1.5225,-43.3333,-25.5687
6024,-0.1200,0.1854,9.8270,0.1325,0.5428,-0.4240,-1.5205,-43.1333,-25.4628
6032,-0.1380,0.2032,9.8855,0.3151,0.4640,-0.4995,-1.5185,-42.9346,-25.3574
6040,-0.2262,0.1569,9.8533,0.1137,0.4099,-0.4890,-1.4982,-42.7372,-25.2495
6048,-0.1211,0.1155,9.8824,0.1479,0.6730,-0.5804,-1.4933,-42.5365,-25.1482
6056,-0.1621,0.1322,9.9043,0.1138,0.8738,-0.8971,-1.4824,-42.3387,-25.0309
6064,-0.1474,0.0343,9.8648,0.2173,0.8472,-1.0960,-1.4717,-42.1421,-24.9145
6072,-0.1942,-0.0182,9.8537,0.1109,0.9578,-1.1528,-1.4713,-41.9395,-24.8106
6080,-0.1449,0.0026,9.8145,0.1318,0.8075,-1.1378,-1.4651,-41.7456,-24.7101
6088,-0.2297,-0.0196,9.8095,0.1838,0.6904,-1.0808,-1.4531,-41.5631,-24.6158
6096,-0.2796,-0.0907,9.7973,0.4255,0.9305,-0.8529,-1.4556,-41.3702,-24.5220
6104,-0.2979,-0.0585,9.8473,0.3873,1.2054,-0.5763,-1.4579,-41.1785,-24.4285
6112,-0.2643,-0.0471,9.8533,0.2975,0.9589,-0.2691,-1.4602,-40.9881,-24.3354
6120,-0.2863,-0.0445,9.8588,0.3316,0.9099,-0.0234,-1.4581,-40.7851,-24.2386
6128,-0.3071,-0.0254,9.8574,0.2762,0.8844,0.0116,-1.4561,-40.5836,-24.1421
6136,-0.1742,0.0225,9.8802,0.2178,0.7480,0.2583,-1.4512,-40.3972,-24.0407
6144,-0.2353,0.0964,9.8585,0.1194,0.6602,0.3530,-1.4464,-40.2121,-23.9398
6152,-0.3507,-0.0004,9.8794,0.0333,0.3735,0.4835,-1.4456,-40.0336,-23.8409
6160,-0.3307,-0.0450,9.8419,0.3243,0.2835,0.8856,-1.4448,-39.8589,-23.7384
6168,-0.3036,-0.0190,9.8484,0.4958,0.4053,1.3955,-1.4493,-39.6879,-23.6352
6176,-0.2931,-0.0291,9.8348,0.6866,0.6259,2.0084,-1.4457,-39.5153,-23.5221
6184,-0.3024,-0.0747,9.8160,0.6503,0.5568,2.3092,-1.4421,-39.3437,-23.4097
6192,-0.2866,-0.0832,9.8164,1.0743,0.5440,2.9648,-1.4372,-39.1653,-23.3150
6200,-0.3114,-0.1009,9.6947,1.0851,0.5185,3.1464,-1.4285,-38.9920,-23.2233
6208,-0.3230,-0.1542,9.7047,0.9407,0.5234,3.6268,-1.4340,-38.8082,-23.1308
6216,-0.1959,-0.0522,9.7622,0.9467,0.6241,4.2701,-1.4392,-38.6256,-23.0388
6224,-0.1197,-0.0874,9.7640,1.0137,0.4777,4.5493,-1.4444,-38.4443,-22.9472
6232,-0.0329,0.0238,9.8053,0.9845,0.5698,4.8723,-1.4419,-38.2592,-22.8549
6240,-0.0245,0.1102,9.8413,1.0205,0.5325,5.3171,-1.4394,-38.0753,-22.7630
6248,-0.0238,0.0628,9.8707,0.9990,0.4888,5.9212,-1.4332,-37.9038,-22.6666
6256,-0.1474,0.0212,9.8959,0.6984,0.5643,6.3975,-1.4270,-37.7334,-22.5708
6264,-0.2785,-0.0051,9.9215,0.4189,0.6552,7.1543,-1.4367,-37.5628,-22.4804
6272,-0.2326,0.0095,9.9040,0.2637,0.3235,7.0780,-1.4377,-37.3933,-22.3965
6280,-0.2207,0.0627,9.9516,0.5579,0.5609,7.3304,-1.4399,-37.2344,-22.3141
6288,-0.3229,-0.0062,9.9195,0.4366,0.5827,7.4811,-1.4336,-37.0705,-22.2238
6296,-0.3074,-0.0763,9.9146,0.3020,0.4115,8.1292,-1.4273,-36.9076,-22.1340
6304,-0.3267,-0.1015,9.8919,0.5732,0.2184,8.5063,-1.4152,-36.7339,-22.0387
6312,-0.3136,-0.0555,9.9561,0.5979,0.3271,8.5175,-1.4032,-36.5613,-21.9440
6320,-0.3978,-0.0722,9.9545,0.6081,0.1831,8.9603,-1.4111,-36.3991,-21.8556
6328,-0.3698,0.0084,9.8574,0.6420,0.1013,8.7677,-1.4188,-36.2379,-21.7677
6336,-0.4359,-0.0809,9.8652,0.5970,0.6258,8.8342,-1.4263,-36.0777,-21.6803
6344,-0.3213,-0.0824,9.8090,0.5753,0.5514,8.9058,-1.4235,-35.9047,-21.5921
6352,-0.3165,-0.0701,9.8046,0.9999,0.5255,8.7982,-1.4206,-35.7329,-21.5045
6360,-0.0985,-0.0799,9.8352,1.1473,0.8501,9.3674,-1.4188,-35.5668,-21.4341
6368,-0.2082,0.0902,9.8050,1.0749,0.9579,9.4903,-1.4170,-35.4017,-21.3639
6376,-0.2301,0.1071,9.7691,0.8856,0.8502,8.9145,-1.4141,-35.2366,-21.2817
6384,-0.2899,0.1537,9.7065,0.8140,0.6300,9.1799,-1.3979,-35.0781,-21.1955
6392,-0.3810,0.1641,9.6471,1.0175,0.7314,9.2524,-1.3863,-34.9139,-21.1184
6400,-0.3454,0.1151,9.5747,1.0174,1.0443,8.8070,-1.3813,-34.7606,-21.0406
6408,-0.2745,0.1287,9.5971,0.9560,1.1942,8.5865,-1.3764,-34.6082,-20.9631
6416,-0.2691,0.1938,9.6930,1.0546,1.0869,8.5622,-1.3790,-34.4535,-20.8752
6424,-0.2355,0.1534,9.7515,1.0689,1.2830,8.3257,-1.3816,-34.2997,-20.7876
6432,-0.3600,0.1260,9.7480,0.8399,1.0971,8.0489,-1.3894,-34.1469,-20.7134
6440,-0.4467,0.0957,9.8172,1.0556,1.5087,7.9415,-1.3970,-33.9949,-20.6394
6448,-0.5110,0.1143,9.8353,1.0086,1.6037,8.0281,-1.4045,-33.8439,-20.5657
6456,-0.5546,0.1270,9.8830,1.2515,1.4225,7.8416,-1.4004,-33.6979,-20.4808
6464,-0.6141,0.0634,9.8820,1.3986,1.2892,7.9219,-1.3962,-33.5528,-20.3963
6472,-0.6292,0.0194,9.8456,1.4992,1.2364,7.9987,-1.4097,-33.4137,-20.3278
6480,-0.5441,-0.0490,9.8404,1.5287,1.3566,8.4535,-1.4126,-33.2568,-20.2565
6488,-0.6187,-0.1492,9.8507,1.4316,1.1409,7.7311,-1.4154,-33.1009,-20.1854
6496,-0.4421,-0.2080,9.7995,1.3707,1.2919,7.8963,-1.4181,-32.9542,-20.1125
6504,-0.4340,-0.1805,9.8342,1.2432,1.3137,7.5609,-1.4238,-32.8032,-20.0420
6512,-0.3186,-0.1357,9.8114,1.1479,1.1505,7.6588,-1.4192,-32.6602,-19.9717
6520,-0.2271,-0.1893,9.8332,1.1528,1.3544,8.0725,-1.4267,-32.5160,-19.9018
6528,-0.1852,-0.1491,9.8470,0.7575,1.5415,7.7427,-1.4340,-32.3727,-19.8321
6536,-0.1860,-0.0995,9.7924,0.6222,1.2670,7.8113,-1.4412,-32.2301,-19.7626
6544,-0.2441,-0.0774,9.8265,0.4367,0.8952,7.4797,-1.4452,-32.0944,-19.6925
6552,-0.1910,-0.0537,9.7903,0.5687,1.0969,7.8238,-1.4492,-31.9594,-19.6226
6560,-0.1581,-0.0273,9.8605,0.7056,1.1752,7.8649,-1.4511,-31.8163,-19.5530
6568,-0.1013,0.0017,9.8558,0.6738,1.1194,8.2589,-1.4529,-31.6741,-19.4828
6576,-0.2600,0.0902,9.8473,0.5475,1.1167,8.3290,-1.4546,-31.5327,-19.4128
6584,-0.3439,0.1075,9.8051,0.8586,0.9222,8.3960,-1.4533,-31.3883,-19.3393
6592,-0.3478,0.1665,9.8525,0.9081,0.7948,7.8467,-1.4626,-31.2514,-19.2747
6600,-0.4056,0.2088,9.8799,0.7102,0.9049,7.8522,-1.4717,-31.1153,-19.2104
6608,-0.4000,0.2194,9.8596,0.7769,0.7116,7.6574,-1.4883,-30.9733,-19.1473
6616,-0.3430,0.2003,9.8189,1.0033,0.6601,7.4391,-1.4875,-30.8407,-19.0739
6624,-0.3320,0.2271,9.8181,1.1585,0.7601,7.1157,-1.5008,-30.7135,-19.0076
6632,-0.2396,0.1193,9.8647,0.9443,0.6558,6.7984,-1.5129,-30.5767,-18.9340
6640,-0.2699,0.1074,9.8805,0.9954,0.4921,6.1164,-1.5248,-30.4407,-18.8607
6648,-0.2276,0.1081,9.8861,1.0923,0.5408,5.8695,-1.5365,-30.3054,-18.7878
6656,-0.1433,0.0581,9.8183,1.2303,0.5314,5.3774,-1.5499,-30.1728,-18.7309
6664,-0.2155,0.0570,9.8927,1.1623,-1.0669,4.6002,-1.5630,-30.0409,-18.6742
6672,-0.0194,-0.0706,9.9477,1.9959,0.1594,4.4730,-1.5796,-29.9070,-18.6076
6680,0.0437,-0.1222,9.8604,3.1930,1.1720,4.8659,-1.5959,-29.7738,-18.5412
6688,0.0312,-0.0583,9.9048,2.1831,0.1430,5.2231,-1.6120,-29.6414,-18.4751
6696,0.0681,-0.1125,9.9409,2.1961,0.3110,5.1406,-1.6224,-29.5152,-18.4147
6704,0.1233,-0.3237,10.0150,1.8831,1.5490,4.0457,-1.6290,-29.3887,-18.3473
6712,0.0249,-0.3860,9.9377,2.0052,2.1488,4.0227,-1.6444,-29.2602,-18.2864
6720,-0.0347,-0.3712,9.9005,1.8073,2.1411,4.1874,-1.6596,-29.1325,-18.2258
6728,-0.1222,-0.2954,9.8104,1.1167,2.0804,4.1022,-1.6719,-29.0037,-18.1672
6736,-0.0029,-0.3239,9.8450,0.7576,2.1983,4.4420,-1.6849,-28.8808,-18.0990
6744,-0.0980,-0.2194,9.8941,0.6329,2.3511,4.2791,-1.6968,-28.7622,-18.0391
6752,-0.0775,-0.1704,9.9148,0.5936,1.8626,4.4698,-1.7085,-28.6442,-17.9793
6760,-0.1623,-0.0682,9.9263,0.3961,1.9074,4.7003,-1.7200,-28.5268,-17.9198
6768,-0.1640,-0.0476,9.9467,0.4872,1.4276,4.9233,-1.7366,-28.3995,-17.8597
6776,-0.1317,-0.0414,9.8959,0.0810,0.9127,5.0219,-1.7529,-28.2730,-17.7997
6784,-0.2110,-0.0353,9.8927,-0.2488,0.9191,4.5083,-1.7638,-28.1592,-17.7348
6792,-0.2266,-0.0379,9.8908,-0.2628,0.8238,4.3797,-1.7744,-28.0461,-17.6702
6800,-0.1146,0.0676,9.9893,0.2704,0.5434,3.9928,-1.7850,-27.9334,-17.6059
6808,-0.0652,0.0825,9.9932,0.5297,0.4806,3.7481,-1.8021,-27.8171,-17.5418
6816,-0.1330,0.0532,9.9266,0.1483,0.5138,3.3195,-1.8190,-27.7014,-17.4780
6824,-0.1607,0.0453,9.8335,0.2156,0.3883,3.4935,-1.8340,-27.5829,-17.4196
6832,-0.1360,0.0641,9.8008,0.1626,-0.0785,3.6787,-1.8487,-27.4650,-17.3613
6840,-0.0983,0.0097,9.7976,0.3146,-0.5008,3.9277,-1.8657,-27.3545,-17.3008
6848,-0.1005,-0.0159,9.8512,-0.4014,-0.5046,4.0752,-1.8925,-27.2445,-17.2430
6856,-0.1249,-0.0332,9.8405,-0.2968,-0.0896,4.2643,-1.9097,-27.1300,-17.1863
6864,-0.2171,-0.0005,9.6900,-0.2794,-0.4394,4.1757,-1.9267,-27.0162,-17.1298
6872,-0.3237,0.0833,9.7055,-0.5001,-0.1206,4.7044,-1.9433,-26.9029,-17.0735
6880,-0.3195,0.1354,9.7078,-0.6791,-0.0397,5.7432,-1.9597,-26.7984,-17.0117
6888,-0.2862,0.2149,9.6888,-1.0636,0.0163,5.4086,-1.9758,-26.6945,-16.9501
6896,-0.2756,0.2864,9.7500,-1.2420,0.2725,5.4460,-2.0006,-26.5878,-16.8855
6904,-0.2455,0.2504,9.7589,-1.8606,0.4561,5.4471,-2.0251,-26.4816,-16.8212
6912,-0.2861,0.3381,9.7734,-1.9455,0.5038,4.8402,-2.0492,-26.3759,-16.7571
6920,-0.2860,0.3614,9.7883,-1.2240,0.8800,4.8091,-2.0722,-26.2740,-16.6983
6928,-0.2631,0.2632,9.8095,-1.1793,1.1678,4.4087,-2.0989,-26.1726,-16.6477
6936,-0.2369,0.2435,9.8506,-1.0193,0.8430,3.6952,-2.1220,-26.0748,-16.5925
6944,-0.1585,0.0973,9.8285,-0.7490,1.2737,2.9755,-2.1448,-25.9775,-16.5375
6952,-0.1569,0.0606,9.8063,-0.6585,1.6323,2.7647,-2.1584,-25.8839,-16.4755
6960,-0.1444,0.0525,9.7839,-0.5693,2.0231,2.3844,-2.1782,-25.7819,-16.4257
6968,-0.1286,0.0451,9.8456,-0.9719,1.9116,2.4447,-2.1913,-25.6908,-16.3698
6976,-0.0679,0.0594,9.8650,-1.1570,1.2129,2.5504,-2.2042,-25.6000,-16.3140
6984,-0.0944,0.0737,9.8270,-1.1500,1.1208,2.6008,-2.2169,-25.5096,-16.2585
6992,-0.0251,-0.0122,9.8987,-1.2713,0.9820,2.6890,-2.2325,-25.4086,-16.2119
7000,-0.1176,0.0135,9.8489,-1.3366,0.9747,2.1920,-2.2478,-25.3081,-16.1654
7008,-0.1969,0.0321,9.8224,-1.5110,0.9010,1.3247,-2.2637,-25.2151,-16.1104
7016,-0.1879,0.0322,9.8472,-1.0832,0.7425,1.3274,-2.2840,-25.1218,-16.0588
7024,-0.1903,0.0304,9.8446,-1.1407,0.7376,1.2259,-2.3039,-25.0289,-16.0074
7032,-0.1879,0.0684,9.8764,-1.1451,0.7916,1.0063,-2.3283,-24.9371,-15.9569
7040,-0.2358,0.0737,9.8966,-0.5732,0.5980,1.2175,-2.3508,-24.8497,-15.9012
7048,-0.2100,0.0310,9.9239,-0.5624,0.7674,1.5529,-2.3760,-24.7618,-15.8526
7056,-0.2075,0.0663,9.9809,-0.7947,0.6734,0.9162,-2.4024,-24.6805,-15.7981
7064,-0.1151,-0.0057,9.9770,-0.8035,1.2716,0.6994,-2.4285,-24.5995,-15.7438
7072,-0.1280,-0.0508,10.0490,-0.9133,0.8782,0.7881,-2.4527,-24.5188,-15.6897
7080,-0.0341,-0.0789,10.1188,-1.0876,0.5981,0.6116,-2.4774,-24.4331,-15.6351
7088,-0.1053,-0.0610,10.0193,-0.0783,-0.1951,-0.2532,-2.5017,-24.3478,-15.5807
7096,-0.1110,-0.0653,10.0509,0.0016,-0.3830,-0.0322,-2.5257,-24.2629,-15.5265
7104,0.0137,-0.0491,10.0949,0.2672,-0.6826,0.2245,-2.5494,-24.1858,-15.4815
7112,0.0359,-0.0997,10.0875,0.5746,-0.5745,0.5179,-2.5728,-24.1091,-15.4367
7120,0.0158,-0.0197,10.1208,0.5513,-0.6311,0.8199,-2.5959,-24.0274,-15.3831
7128,-0.0301,0.0021,10.1062,0.6943,-0.4266,1.3379,-2.6201,-23.9461,-15.3371
7136,-0.0169,0.0128,10.1455,1.0950,-0.0924,1.3027,-2.6441,-23.8651,-15.2913
7144,0.0264,0.0174,10.1478,0.5929,-0.1914,1.0023,-2.6729,-23.7889,-15.2412
7152,-0.0019,0.0193,10.1293,0.8087,-0.4514,0.6777,-2.6977,-23.7189,-15.1854
7160,0.0063,0.0433,10.1003,0.7324,0.2226,0.4660,-2.7199,-23.6491,-15.1335
7168,-0.0469,0.0123,9.9780,0.2408,0.5177,0.6209,-2.7484,-23.5766,-15.0826
7176,-0.1274,0.0338,9.8983,0.3041,0.1307,-0.1109,-2.7765,-23.5044,-15.0318
7184,-0.0931,0.0205,9.8567,0.0952,0.1019,-0.1655,-2.8000,-23.4427,-14.9791
7192,-0.0654,-0.0376,9.8135,-0.1445,-0.1149,-0.5723,-2.8274,-23.3651,-14.9237
7200,-0.1122,-0.0737,9.7467,0.0582,-0.0183,-1.1133,-2.8545,-23.2877,-14.8685
7208,-0.0744,-0.1748,9.7054,0.1774,0.0074,-0.8441,-2.8719,-23.2273,-14.8222
7216,-0.1595,-0.2247,9.6484,0.7901,0.1200,-0.7279,-2.8890,-23.1670,-14.7761
7224,-0.1569,-0.2235,9.6037,1.1279,-0.7430,-0.1101,-2.9059,-23.1068,-14.7301
7232,-0.1700,-0.1012,9.6165,1.0510,-1.0829,0.1553,-2.9290,-23.0367,-14.6786
7240,-0.1540,-0.1459,9.7246,0.8628,-1.0053,0.9344,-2.9560,-22.9698,-14.6280
7248,0.0053,-0.1498,9.7606,1.1069,-1.1844,1.3435,-2.9806,-22.9094,-14.5748
7256,-0.0843,-0.2017,9.7015,1.2975,-1.3903,1.0147,-3.0049,-22.8492,-14.5217
7264,-0.0897,-0.1434,9.7009,0.6026,-1.2459,0.7349,-3.0289,-22.7913,-14.4675
7272,0.0430,-0.1777,9.7223,0.9940,-1.4545,0.7980,-3.0567,-22.7342,-14.4107
7280,0.0811,-0.1486,9.8063,0.6803,-1.6806,0.6557,-3.0808,-22.6736,-14.3577
7288,0.1346,-0.0922,9.8453,0.6016,-1.0515,1.6743,-3.1059,-22.6077,-14.3049
7296,0.1016,-0.0325,9.7860,0.8757,-0.7220,1.5763,-3.1307,-22.5419,-14.2488
7304,0.0890,-0.0564,9.7555,0.8712,-1.0174,1.8853,-3.1580,-22.4895,-14.1992
7312,0.0220,-0.0197,9.7798,0.3735,-0.6787,1.7435,-3.1850,-22.4373,-14.1499
7320,0.0889,0.0322,9.8460,0.2843,-0.9014,2.1438,-3.2033,-22.3802,-14.0986
7328,0.1222,0.0860,9.8445,0.3349,-1.2397,2.2573,-3.2213,-22.3233,-14.0476
7336,0.0447,0.1146,9.9100,0.2580,-1.1419,2.1712,-3.2391,-22.2665,-13.9968
7344,0.1159,0.0995,9.9269,0.2272,-1.8377,1.6809,-3.2601,-22.2132,-13.9483
7352,0.1251,0.1396,9.9823,0.2723,-2.5804,1.6520,-3.2829,-22.1587,-13.8993
7360,0.1030,0.1427,9.9559,0.4489,-1.7573,0.8723,-3.3123,-22.1043,-13.8553
7368,0.0301,0.1632,9.9257,0.9083,-1.6475,0.5641,-3.3413,-22.0499,-13.8114
7376,-0.0271,0.0997,9.8992,0.9904,-1.4732,0.1654,-3.3617,-21.9978,-13.7595
7384,-0.0330,0.0209,9.9012,1.3568,-1.5812,0.4614,-3.3792,-21.9464,-13.7072
7392,-0.0127,-0.0527,9.9122,0.9952,-2.2871,1.0432,-3.3970,-21.8924,-13.6605
7400,0.0211,-0.0396,9.8897,1.0735,-2.5515,1.0635,-3.4181,-21.8425,-13.6092
7408,0.0553,-0.1434,9.8990,1.0363,-2.4630,1.2802,-3.4388,-21.7927,-13.5582
7416,0.1254,-0.1153,9.8632,0.9180,-2.4423,1.5648,-3.4627,-21.7464,-13.5135
7424,0.1406,-0.0930,9.7867,1.1757,-2.0253,1.6877,-3.4862,-21.7001,-13.4689
7432,0.0733,-0.0523,9.7889,0.6140,-1.9651,1.9198,-3.5061,-21.6572,-13.4198
7440,0.0647,-0.0301,9.7909,0.4823,-1.6969,1.7151,-3.5258,-21.6144,-13.3709
7448,0.1312,-0.0725,9.7964,0.6443,-2.0164,1.2394,-3.5451,-21.5715,-13.3223
7456,0.0999,-0.0980,9.8210,0.5058,-1.7060,1.0831,-3.5643,-21.5253,-13.2738
7464,-0.0511,-0.0869,9.7361,0.2721,-1.6918,1.0537,-3.5751,-21.4824,-13.2128
7472,-0.0163,-0.0259,9.7077,0.2193,-1.6915,1.0815,-3.5971,-21.4376,-13.1668
7480,-0.0291,-0.0532,9.7074,0.2728,-1.6300,1.2441,-3.6189,-21.3928,-13.1210
7488,0.0600,-0.0628,9.7400,0.2600,-1.0218,1.4343,-3.6390,-21.3533,-13.0721
7496,-0.0566,-0.0254,9.6724,0.3117,-0.9815,1.7735,-3.6503,-21.3072,-13.0280
7504,-0.0596,0.0056,9.7251,0.0759,-0.7803,1.5939,-3.6674,-21.2683,-12.9815
7512,-0.0346,0.0428,9.7173,-0.1817,-1.3292,1.5208,-3.6849,-21.2341,-12.9299
7520,0.0505,0.0391,9.7776,-0.4493,-1.1155,1.5096,-3.7021,-21.1997,-12.8786
7528,-0.1235,0.1081,9.7465,-0.5106,-0.7245,1.4428,-3.7211,-21.1581,-12.8341
7536,-0.0678,0.1283,9.7959,-0.5398,-0.0092,1.0643,-3.7399,-21.1165,-12.7897
7544,-0.0661,0.0850,9.7699,-0.6771,-0.3385,1.3664,-3.7500,-21.0800,-12.7436
7552,-0.1411,0.1515,9.7865,-0.5017,-0.3495,1.7619,-3.7598,-21.0436,-12.6977
7560,-0.1334,0.1266,9.7924,-0.7100,-0.7866,1.8467,-3.7696,-21.0070,-12.6520
7568,-0.1455,0.1869,9.8269,-1.1146,-0.6499,2.4799,-3.7849,-20.9711,-12.6045
7576,-0.2070,0.2464,9.7989,-0.6507,-0.6659,2.2774,-3.7956,-20.9371,-12.5572
7584,-0.2408,0.2798,9.7936,-0.9592,-0.6919,1.9957,-3.8106,-20.9050,-12.5083
7592,-0.2122,0.3743,9.7852,-1.2008,-1.0447,1.6251,-3.8209,-20.8760,-12.4595
7600,-0.2064,0.4807,9.7698,-0.7492,-1.2540,0.9479,-3.8310,-20.8469,-12.4110
7608,-0.1059,0.3433,9.7732,-0.7253,-0.9129,-0.0196,-3.8462,-20.8119,-12.3633
7616,-0.0864,0.2136,9.7580,-1.1105,-1.4987,-0.7981,-3.8611,-20.7768,-12.3100
7624,0.0031,0.0971,9.7156,-1.1908,-1.4563,-1.1319,-3.8765,-20.7455,-12.2609
7632,-0.0288,0.0267,9.6677,-1.8143,-0.9703,-1.9445,-3.8917,-20.7142,-12.2119
7640,-0.0172,0.0013,9.7122,-1.8132,-0.7030,-2.0735,-3.9009,-20.6846,-12.1581
7648,0.0835,-0.0249,9.7858,-1.8148,-1.0126,-2.0182,-3.9100,-20.6550,-12.1046
7656,0.0726,-0.0599,9.7589,-1.6110,-1.2847,-1.9840,-3.9279,-20.6285,-12.0576
7664,0.1020,-0.1627,9.8021,-1.4668,-0.7450,-1.8100,-3.9456,-20.6018,-12.0109
7672,0.0643,-0.1355,9.7764,-1.5449,-0.4795,-1.5182,-3.9631,-20.5751,-11.9643
7680,-0.0286,-0.1792,9.8412,-1.5263,-0.3109,-2.1646,-3.9696,-20.5450,-11.9180
7688,-0.1085,-0.1691,9.8446,-1.9537,0.0396,-2.7186,-3.9779,-20.5193,-11.8706
7696,-0.0720,-0.1608,9.8053,-1.9705,0.0708,-2.4005,-3.9930,-20.4897,-11.8209
7704,-0.1291,-0.1597,9.8035,-1.8959,-0.1447,-2.3176,-4.0010,-20.4638,-11.7676
7712,-0.1899,-0.1114,9.7632,-2.0459,0.1799,-3.4009,-4.0088,-20.4377,-11.7146
7720,-0.0291,-0.0890,9.8733,-1.9494,-0.2137,-3.0236,-4.0241,-20.4103,-11.6650
7728,0.0423,-0.1822,9.8568,-1.7264,-0.2381,-2.6228,-4.0385,-20.3866,-11.6237
7736,0.0034,-0.0356,9.8183,-2.0411,-0.2081,-3.2875,-4.0416,-20.3596,-11.5764
7744,0.0015,-0.1220,9.7428,-2.1367,-0.3101,-3.5417,-4.0458,-20.3381,-11.5255
7752,-0.0357,-0.0982,9.7460,-2.3002,0.4804,-3.6596,-4.0499,-20.3164,-11.4749
7760,-0.0617,-0.0566,9.6811,-2.5578,0.4070,-3.1589,-4.0539,-20.2946,-11.4245
7768,-0.0911,0.0261,9.7671,-2.3135,0.1101,-3.4109,-4.0696,-20.2695,-11.3774
7776,0.0103,-0.0147,9.7977,-1.8426,-0.0324,-3.7797,-4.0851,-20.2444,-11.3305
7784,0.1111,-0.0125,9.8394,-1.7869,-0.2461,-3.9165,-4.0948,-20.2191,-11.2901
7792,0.0297,-0.0738,9.8366,-1.3924,0.0536,-4.2153,-4.1045,-20.1937,-11.2498
7800,0.0818,-0.0878,9.7767,-1.4417,-0.3265,-4.4317,-4.1115,-20.1706,-11.2016
7808,0.1107,-0.1051,9.8004,-1.3502,-0.2526,-4.3266,-4.1130,-20.1499,-11.1543
7816,0.1501,-0.1097,9.7399,-1.6974,-0.0753,-4.3701,-4.1131,-20.1254,-11.1084
7824,0.1880,-0.0652,9.7894,-1.2241,-0.0284,-3.5824,-4.1131,-20.1007,-11.0627
7832,0.1986,-0.0623,9.8000,-1.7741,0.2324,-4.0318,-4.1137,-20.0803,-11.0136
7840,0.1735,-0.1129,9.8320,-1.4228,0.3192,-3.7949,-4.1227,-20.0621,-10.9640
7848,0.2429,-0.1037,9.8846,-1.5695,-0.1392,-4.0803,-4.1316,-20.0407,-10.9104
7856,0.2355,-0.0506,9.8520,-1.4644,-0.1215,-3.4893,-4.1374,-20.0203,-10.8657
7864,0.1095,-0.0882,9.8753,-1.2439,0.3541,-3.9854,-4.1431,-19.9999,-10.8211
7872,0.0502,-0.0736,9.8969,-0.8571,-0.1431,-4.2385,-4.1486,-19.9793,-10.7767
7880,0.0780,-0.0639,9.8723,-0.6045,-0.2373,-4.2912,-4.1547,-19.9549,-10.7277
7888,0.2038,-0.0333,9.8755,-0.4910,-0.5406,-4.6456,-4.1607,-19.9304,-10.6790
7896,0.2666,-0.0845,9.8902,-0.3611,-0.6067,-5.1685,-4.1599,-19.9083,-10.6340
7904,0.2238,-0.1549,9.8535,-0.7889,-0.5793,-5.4045,-4.1591,-19.8860,-10.5894
7912,0.2100,-0.1306,9.8512,-0.6086,-0.2970,-5.1449,-4.1649,-19.8642,-10.5413
7920,0.2490,-0.0709,9.8842,-0.2283,-0.0538,-5.1206,-4.1705,-19.8434,-10.4988
7928,0.2420,-0.0543,9.8453,-0.1952,0.2108,-4.7481,-4.1659,-19.8322,-10.4523
7936,0.1718,-0.0196,9.7896,-0.3689,-0.0294,-5.1705,-4.1678,-19.8075,-10.4067
7944,0.2532,-0.0542,9.8562,-0.2523,-0.0059,-4.8891,-4.1696,-19.7827,-10.3613
7952,0.2767,-0.1002,9.8946,-0.2929,0.1713,-4.8574,-4.1666,-19.7637,-10.3148
7960,0.2206,-0.1035,9.8238,-0.0863,0.4181,-4.9790,-4.1618,-19.7470,-10.2710
7968,0.2044,-0.0883,9.7956,-0.1021,0.5180,-5.8340,-4.1593,-19.7271,-10.2215
7976,0.2403,-0.1091,9.8740,-0.0239,0.2083,-5.9236,-4.1567,-19.7071,-10.1721
7984,0.1466,-0.0888,9.8433,0.0083,0.3761,-5.7746,-4.1542,-19.6869,-10.1230
7992,0.1849,-0.1192,9.9067,0.0790,0.3046,-5.7201,-4.1545,-19.6618,-10.0772
8000,0.2349,-0.1339,9.9157,0.4000,0.3615,-5.6173,-4.1548,-19.6366,-10.0315
8008,0.1951,-0.0939,9.9913,0.4536,0.2427,-6.1164,-4.1503,-19.6184,-9.9866
8016,0.1267,-0.1074,9.9759,0.5021,0.1636,-6.1616,-4.1458,-19.6001,-9.9419
8024,0.0848,-0.1519,9.9442,0.5619,0.0054,-6.0396,-4.1377,-19.5810,-9.8939
8032,0.1148,-0.1840,10.0221,0.4378,-0.2072,-5.9735,-4.1326,-19.5659,-9.8432
8040,0.1879,-0.2923,9.9851,0.3404,-0.0986,-5.3690,-4.1233,-19.5454,-9.7974
8048,0.1662,-0.2805,9.9680,0.3166,-0.1840,-4.8336,-4.1222,-19.5212,-9.7513
8056,0.0932,-0.2753,9.9453,0.2139,-0.3057,-4.4310,-4.1211,-19.4969,-9.7054
8064,0.0135,-0.1686,9.8914,0.4543,-0.2461,-3.9473,-4.1105,-19.4825,-9.6603
8072,0.0517,-0.1144,9.9283,0.6255,-0.0477,-3.5034,-4.1029,-19.4679,-9.6154
8080,0.0065,-0.0439,9.9130,0.5439,0.0780,-3.2736,-4.0953,-19.4439,-9.5684
8088,-0.0372,0.0262,9.8814,0.3005,0.0088,-3.2405,-4.0877,-19.4197,-9.5217
8096,0.0039,0.0154,9.8678,0.0918,0.2120,-3.2862,-4.0800,-19.3954,-9.4751
8104,0.0876,0.0503,9.8682,0.1642,0.1664,-2.8792,-4.0689,-19.3752,-9.4323
8112,0.1005,0.0491,9.8149,-0.1158,0.1227,-2.5087,-4.0578,-19.3548,-9.3897
8120,0.1285,0.0434,9.7889,-0.3810,0.3956,-1.7944,-4.0472,-19.3361,-9.3420
8128,0.1416,0.0141,9.8037,-0.4879,0.4512,-1.1833,-4.0367,-19.3172,-9.2946
8136,0.1817,0.0778,9.8676,-0.4835,0.5204,-1.1430,-4.0245,-19.2983,-9.2544
8144,0.2056,0.0312,9.8800,-0.2793,0.5199,-1.5844,-4.0076,-19.2775,-9.2097
8152,0.1936,0.0951,9.9157,-0.0493,0.5781,-2.1558,-3.9948,-19.2623,-9.1635
8160,0.2424,0.1670,9.9498,-0.1467,0.7297,-2.6436,-3.9763,-19.2396,-9.1204
8168,0.2246,0.2057,9.9019,-0.0852,0.6694,-3.2860,-3.9578,-19.2168,-9.0775
8176,0.2139,0.2056,9.9019,0.0456,0.3371,-3.6870,-3.9429,-19.1991,-9.0302
8184,0.1642,0.1992,9.8558,0.0321,0.6806,-3.9932,-3.9239,-19.1784,-8.9912
8192,0.1384,0.1606,9.8988,-0.4342,0.4144,-4.1873,-3.9056,-19.1496,-8.9460
8200,0.1683,0.1575,9.9273,-0.1362,0.1732,-4.5889,-3.8873,-19.1207,-8.9011
8208,0.1183,0.1420,9.9021,0.0982,-0.2281,-4.4183,-3.8691,-19.0918,-8.8564
8216,0.1392,0.0755,9.9175,0.1997,0.0388,-4.0871,-3.8532,-19.0606,-8.8130
8224,0.1358,-0.0037,9.9255,0.4380,0.1474,-4.1278,-3.8373,-19.0294,-8.7698
8232,0.0648,0.0075,9.9200,0.6046,-0.0288,-4.3800,-3.8244,-19.0038,-8.7291
8240,0.0393,-0.0061,9.9282,0.4946,0.0721,-4.5892,-3.8046,-18.9771,-8.6835
8248,0.1110,-0.0684,9.9188,0.5281,-0.1595,-4.2852,-3.7849,-18.9503,-8.6381
8256,0.1457,-0.1299,9.9445,0.5921,-0.1596,-4.3599,-3.7698,-18.9240,-8.5918
8264,0.1918,-0.1632,9.9477,0.4079,-0.4397,-3.8526,-3.7485,-18.9011,-8.5468
8272,0.2503,-0.1819,9.9865,0.4265,-0.2035,-3.4982,-3.7323,-18.8759,-8.5010
8280,0.1393,-0.1619,9.9720,0.5723,-0.1057,-3.2953,-3.7140,-18.8529,-8.4564
8288,0.2005,-0.0988,10.0136,0.5704,0.0065,-2.7732,-3.6957,-18.8299,-8.4121
8296,0.2455,0.0039,10.0170,0.5472,-0.1075,-2.3487,-3.6768,-18.8017,-8.3669
8304,0.2347,0.0285,9.9686,0.5010,-0.1845,-2.1587,-3.6575,-18.7774,-8.3281
8312,0.1579,0.0658,9.9476,0.5875,-0.3169,-2.3370,-3.6382,-18.7531,-8.2894
8320,0.1231,0.0945,9.9455,0.4543,-0.2328,-2.2169,-3.6207,-18.7310,-8.2426
8328,0.1704,0.0613,9.9408,0.4335,-0.0483,-2.1393,-3.6032,-18.7089,-8.1959
8336,0.1440,0.1128,9.9421,0.4403,0.0134,-2.0118,-3.5858,-18.6867,-8.1495
8344,0.1118,0.1001,9.9642,0.4655,-0.2769,-1.9486,-3.5640,-18.6633,-8.1011
8352,0.0513,0.1552,9.9226,0.3482,-0.2879,-1.7281,-3.5394,-18.6315,-8.0568
8360,0.0371,0.1982,9.9047,0.4254,-0.3490,-1.6906,-3.5148,-18.5997,-8.0128
8368,0.0917,0.1496,9.8961,0.3366,-0.3409,-1.7801,-3.4854,-18.5702,-7.9673
8376,0.1347,0.1298,9.8247,0.2863,-0.6103,-1.6576,-3.4588,-18.5389,-7.9232
8384,0.1763,0.1712,9.8087,0.3982,-0.7534,-1.6979,-3.4312,-18.5077,-7.8737
8392,0.2249,0.0988,9.7742,0.4652,-0.4662,-2.0670,-3.4026,-18.4770,-7.8279
8400,0.2940,0.0875,9.7717,0.2173,-0.4635,-1.7720,-3.3741,-18.4463,-7.7822
8408,0.3004,0.0312,9.7640,0.1215,-0.5090,-1.9966,-3.3469,-18.4095,-7.7402
8416,0.3550,-0.0019,9.7598,0.3180,-0.6378,-1.9020,-3.3141,-18.3755,-7.6945
8424,0.3151,-0.0228,9.7992,0.3485,-0.5957,-1.8675,-3.2815,-18.3416,-7.6490
8432,0.3673,-0.0202,9.8367,0.3323,-0.5340,-1.8746,-3.2479,-18.3016,-7.6072
8440,0.3604,-0.0576,9.8278,0.3996,-0.6404,-1.5294,-3.2144,-18.2616,-7.5655
8448,0.3633,-0.0745,9.8348,0.3572,-0.5901,-1.3246,-3.1811,-18.2217,-7.5240
8456,0.3590,-0.0352,9.8333,0.2473,-0.4781,-1.1767,-3.1451,-18.1862,-7.4861
8464,0.4467,0.0228,9.7956,0.3636,-0.4056,-1.1393,-3.1087,-18.1447,-7.4423
8472,0.5211,0.0237,9.7897,0.1815,-0.4216,-1.0235,-3.0747,-18.1077,-7.3977
8480,0.5683,0.0355,9.7607,0.1433,-0.5489,-1.0568,-3.0409,-18.0708,-7.3532
8488,0.4803,0.0807,9.7540,-0.1199,-0.4386,-1.1607,-3.0072,-18.0339,-7.3101
8496,0.5091,0.0402,9.7307,-0.0569,-0.5652,-1.1080,-2.9725,-17.9970,-7.2650
8504,0.3635,0.0012,9.7009,-0.1700,-0.4462,-1.4043,-2.9374,-17.9580,-7.2207
8512,0.4795,-0.0714,9.7031,-0.1928,-0.5857,-1.4823,-2.8965,-17.9185,-7.1800
8520,0.4227,-0.0870,9.7201,-0.1372,-0.6392,-1.5088,-2.8558,-17.8790,-7.1394
8528,0.3399,-0.0570,9.7392,-0.3508,-0.4183,-1.4089,-2.8174,-17.8413,-7.1078
8536,0.2860,-0.0457,9.7459,-0.4724,-0.4738,-0.9827,-2.7793,-17.8036,-7.0764
8544,0.2381,-0.0465,9.7129,-0.5140,-0.3534,-0.6658,-2.7424,-17.7660,-7.0380
8552,0.2047,0.0039,9.7303,-0.4871,-0.5344,-0.3628,-2.7057,-17.7284,-6.9999
8560,0.1714,0.0690,9.7174,-0.3280,-0.4968,-0.2970,-2.6692,-17.6909,-6.9619
8568,0.2323,0.0610,9.7295,-0.3439,-0.8021,-0.0047,-2.6324,-17.6447,-6.9235
8576,0.2264,0.0555,9.7422,-0.4391,-0.6994,-0.0372,-2.5935,-17.6046,-6.8860
8584,0.1969,0.0365,9.7646,-0.3968,-0.6626,-0.1457,-2.5538,-17.5608,-6.8475
8592,0.2221,0.0562,9.7480,-0.3110,-0.6780,-0.1054,-2.5142,-17.5170,-6.8092
8600,0.2586,0.0412,9.7325,-0.2610,-0.5941,0.0212,-2.4727,-17.4750,-6.7771
8608,0.2776,-0.0781,9.6852,-0.4211,-0.6525,0.1742,-2.4335,-17.4314,-6.7418
8616,0.1794,-0.0516,9.7012,-0.4250,-0.9084,0.3125,-2.3930,-17.3945,-6.7030
8624,0.1362,-0.0723,9.7148,-0.4740,-0.8971,0.4634,-2.3515,-17.3522,-6.6682
8632,0.1103,-0.0477,9.7302,-0.3821,-0.9956,0.6877,-2.3103,-17.3099,-6.6335
8640,0.1870,-0.0351,9.7643,-0.4570,-1.0044,0.9636,-2.2725,-17.2716,-6.5984
8648,0.2346,-0.0551,9.7399,-0.4139,-1.1062,1.3821,-2.2350,-17.2333,-6.5636
8656,0.3264,-0.0832,9.7380,-0.3754,-0.9716,1.7769,-2.1922,-17.1853,-6.5327
8664,0.3799,-0.0676,9.6697,-0.4052,-0.9255,1.8238,-2.1497,-17.1375,-6.5019
8672,0.3631,-0.0722,9.6630,-0.2097,-0.7188,1.7673,-2.1073,-17.0897,-6.4713
8680,0.3876,-0.0527,9.6524,-0.1321,-0.7131,1.9026,-2.0642,-17.0459,-6.4436
8688,0.5359,-0.0650,9.6661,-0.0579,-0.6623,2.0266,-2.0213,-17.0022,-6.4133
8696,0.6054,-0.0271,9.6693,-0.0883,-0.6004,1.9346,-1.9791,-16.9634,-6.3826
8704,0.6610,-0.0346,9.6818,-0.1413,-0.5546,1.9213,-1.9372,-16.9247,-6.3521
8712,0.5984,-0.0223,9.7018,-0.1414,-0.5721,1.8072,-1.8890,-16.8849,-6.3217
8720,0.5312,-0.0066,9.7025,-0.1735,-0.5301,1.8527,-1.8482,-16.8432,-6.2957
8728,0.4782,-0.0033,9.7100,-0.1988,-0.5087,1.7230,-1.8092,-16.7988,-6.2742
8736,0.4298,-0.0163,9.7237,-0.1510,-0.5842,1.7002,-1.7672,-16.7535,-6.2453
8744,0.3750,-0.0217,9.7273,-0.1586,-0.5657,1.5905,-1.7255,-16.7082,-6.2166
8752,0.3227,-0.0288,9.7279,-0.1259,-0.6147,1.5575,-1.6877,-16.6690,-6.1933
8760,0.2768,-0.0143,9.7358,-0.1880,-0.5015,1.4407,-1.6502,-16.6299,-6.1701
8768,0.2512,-0.0048,9.7447,-0.0794,-0.4600,1.4409,-1.6119,-16.5892,-6.1460
8776,0.2157,-0.0081,9.7555,-0.1595,-0.6336,1.3932,-1.5738,-16.5486,-6.1221
8784,0.1854,-0.0093,9.7593,-0.1987,-0.6957,1.3662,-1.5359,-16.5081,-6.0982
8792,0.1607,-0.0112,9.7687,-0.1429,-0.6883,1.3830,-1.4966,-16.4678,-6.0718
8800,0.1283,-0.0498,9.7768,-0.1323,-0.6519,1.4232,-1.4523,-16.4275,-6.0455
8808,0.0890,-0.1955,9.7740,-0.0820,-0.7478,1.7095,-1.4135,-16.3926,-6.0177
8816,0.0685,-0.5059,9.8271,0.5100,-0.9329,2.9193,-1.3739,-16.3525,-5.9901
8824,0.3305,-0.1695,10.0756,2.1614,-1.2218,3.4949,-1.3345,-16.3124,-5.9626
8832,0.4843,-0.0574,9.9615,2.2606,-1.2234,2.8587,-1.2980,-16.2725,-5.9369
8840,0.2676,0.2614,9.7399,2.5928,-1.0463,0.5516,-1.2617,-16.2353,-5.9096
8848,0.1477,0.2492,9.7498,2.5265,-0.9970,-1.9425,-1.2267,-16.1971,-5.8815
8856,0.1243,0.2236,9.7323,2.2951,-0.9818,-4.0609,-1.1919,-16.1590,-5.8534
8864,0.0895,0.2045,9.7342,2.1459,-0.9646,-5.8574,-1.1579,-16.1189,-5.8271
8872,0.0830,0.2009,9.7519,2.1258,-1.0148,-7.1832,-1.1240,-16.0789,-5.8010
8880,0.0485,0.1972,9.7611,2.1839,-0.9615,-8.3978,-1.0919,-16.0400,-5.7775
8888,0.0159,0.1765,9.7813,2.2022,-0.9532,-9.2793,-1.0601,-16.0012,-5.7543
8896,-0.0004,0.1801,9.7827,2.3876,-0.9292,-9.9462,-1.0284,-15.9625,-5.7311
8904,-0.0229,0.1729,9.7684,2.6583,-0.7543,-10.3466,-1.0032,-15.9186,-5.7043
8912,-0.0287,0.1719,9.7647,2.8238,-0.7071,-10.7375,-0.9777,-15.8812,-5.6782
8920,-0.0407,0.1905,9.7499,2.8194,-0.7126,-10.8260,-0.9534,-15.8439,-5.6564
8928,-0.0658,0.2005,9.7534,2.6018,-0.6538,-10.7746,-0.9276,-15.8019,-5.6289
8936,-0.0738,0.2023,9.7615,2.3192,-0.5390,-10.5548,-0.9021,-15.7600,-5.6016
8944,-0.0734,0.2076,9.7611,2.1475,-0.5598,-10.1552,-0.8745,-15.7187,-5.5802
8952,-0.0726,0.2032,9.7817,1.9913,-0.5557,-9.6799,-0.8498,-15.6776,-5.5536
8960,-0.0804,0.1806,9.7681,1.8473,-0.6025,-9.1959,-0.8252,-15.6365,-5.5271
8968,-0.0707,0.1688,9.7771,1.8350,-0.5459,-8.8425,-0.8013,-15.5987,-5.5039
8976,-0.0551,0.1650,9.7647,1.8098,-0.5424,-8.3765,-0.7776,-15.5610,-5.4809
8984,-0.0551,0.1620,9.7563,1.7324,-0.5258,-8.1149,-0.7540,-15.5234,-5.4579
8992,-0.0464,0.1528,9.7587,1.6238,-0.5392,-7.8088,-0.7284,-15.4843,-5.4329
9000,-0.0495,0.1450,9.7768,1.5092,-0.5253,-7.4147,-0.7031,-15.4454,-5.4081
9008,-0.0464,0.1430,9.7850,1.5436,-0.5734,-7.0912,-0.6789,-15.4070,-5.3818
9016,-0.0586,0.1412,9.7865,1.4912,-0.6141,-6.6565,-0.6548,-15.3687,-5.3556
9024,-0.0582,0.1399,9.7847,1.5584,-0.6156,-6.3687,-0.6309,-15.3306,-5.3332
9032,-0.0574,0.1361,9.7825,1.4307,-0.5585,-6.1390,-0.6082,-15.2873,-5.3093
9040,-0.0627,0.1422,9.7902,1.3965,-0.4931,-5.9032,-0.5830,-15.2493,-5.2835
9048,-0.0542,0.1436,9.7875,1.3719,-0.3720,-5.5418,-0.5580,-15.2125,-5.1294
9056,-0.0556,0.1403,9.7888,1.3297,-0.3494,-5.2308,-0.5331,-15.1758,-5.1101
9064,-0.0651,0.1465,9.7785,1.2546,-0.3279,-4.8935,-0.5089,-15.1428,-5.0873
9072,-0.0578,0.1475,9.7729,1.2095,-0.2539,-4.5655,-0.4848,-15.1099,-5.0652
9080,-0.0579,0.1466,9.7737,1.1424,-0.2019,-4.4439,-0.4598,-15.0729,-5.0422
9088,-0.0649,0.1439,9.7558,1.0008,-0.2322,-4.3250,-0.4350,-15.0360,-5.0199
9096,-0.0726,0.1352,9.7628,0.9535,-0.2691,-4.2273,-0.4103,-14.9992,-4.9982
9104,-0.0691,0.1336,9.7741,0.8975,-0.2617,-4.0485,-0.3867,-14.9625,-4.9798
9112,-0.0669,0.1263,9.7657,0.9107,-0.2120,-3.8588,-0.3634,-14.9259,-4.9620
9120,-0.0721,0.1160,9.7649,0.8433,-0.2285,-3.7308,-0.3422,-14.8836,-4.9417
9128,-0.0691,0.1154,9.7606,0.7842,-0.2282,-3.5470,-0.3212,-14.8415,-4.9221
9136,-0.0609,0.1148,9.7653,0.6930,-0.1826,-3.4646,-0.2972,-14.7974,-4.9051
9144,-0.0521,0.1142,9.7641,0.7258,-0.1951,-3.3832,-0.2764,-14.7556,-4.8882
9152,-0.0433,0.1247,9.7658,0.6531,-0.1909,-3.2360,-0.2573,-14.7154,-4.8724
9160,-0.0485,0.1260,9.7700,0.6770,-0.2403,-3.0472,-0.2357,-14.6800,-4.8552
9168,-0.0427,0.1294,9.7661,0.6358,-0.3116,-2.8960,-0.2143,-14.6446,-4.8385
9176,-0.0398,0.1270,9.7657,0.6044,-0.3050,-2.7381,-0.1935,-14.6047,-4.8193
9184,-0.0522,0.1317,9.7745,0.5691,-0.2774,-2.6697,-0.1728,-14.5649,-4.8007
9192,-0.0611,0.1209,9.7898,0.6180,-0.2777,-2.5457,-0.1501,-14.5247,-4.7884
9200,-0.0527,0.1312,9.7931,0.6140,-0.2459,-2.5418,-0.1276,-14.4847,-4.7766
9208,-0.0498,0.1368,9.8043,0.5596,-0.3276,-2.4820,-0.1053,-14.4447,-4.7653
9216,-0.0452,0.1447,9.7985,0.4542,-0.3417,-2.3875,-0.0809,-14.4121,-4.7525
9224,-0.0503,0.1413,9.8019,0.3828,-0.2885,-2.2625,-0.0568,-14.3795,-4.7402
9232,-0.0566,0.1341,9.8018,0.3625,-0.2936,-2.1376,-0.0379,-14.3470,-4.7300
9240,-0.0628,0.1304,9.8085,0.3937,-0.2691,-2.0476,-0.0191,-14.3146,-4.7203
9248,-0.0516,0.1243,9.8077,0.3916,-0.1791,-1.8201,0.0027,-14.2844,-4.7106
9256,-0.0496,0.1283,9.8144,0.4082,-0.1437,-1.8452,0.0243,-14.2450,-4.7024
9264,-0.0620,0.1279,9.8131,0.3948,-0.1471,-1.7013,0.0469,-14.2082,-4.6896
9272,-0.0668,0.1293,9.8187,0.3660,-0.0385,-1.6596,0.0704,-14.1711,-4.6819
9280,-0.0729,0.1237,9.8238,0.3917,-0.1185,-1.6171,0.0937,-14.1340,-4.6747
9288,-0.0758,0.1201,9.8212,0.3817,-0.0671,-1.6004,0.1143,-14.1012,-4.6715
9296,-0.0720,0.1113,9.8156,0.3934,-0.0765,-1.4565,0.1349,-14.0684,-4.6688
9304,-0.0672,0.1093,9.8155,0.3433,-0.1149,-1.4202,0.1589,-14.0357,-4.6614
9312,-0.0541,0.1084,9.8132,0.3301,-0.1863,-1.4015,0.1828,-14.0031,-4.6544
9320,-0.0624,0.1089,9.8120,0.2827,-0.2226,-1.2983,0.2065,-13.9706,-4.6479
9328,-0.0735,0.1048,9.8105,0.2481,-0.2039,-1.3036,0.2245,-13.9311,-4.6413
9336,-0.0649,0.0925,9.8150,0.2737,-0.1621,-1.1593,0.2424,-13.8916,-4.6352
9344,-0.0626,0.0995,9.8218,0.3088,-0.1327,-1.0933,0.2602,-13.8599,-4.6321
9352,-0.0623,0.1041,9.8157,0.2411,-0.1526,-1.1262,0.2764,-13.8196,-4.6227
9360,-0.0566,0.1000,9.8116,0.2403,-0.0250,-1.0937,0.2925,-13.7795,-4.6138
9368,-0.0560,0.0964,9.8183,0.3649,-0.0977,-1.0333,0.3079,-13.7455,-4.6109
9376,-0.0513,0.0999,9.8066,0.2307,-0.0792,-1.0208,0.3279,-13.7091,-4.6094
9384,-0.0476,0.1103,9.8128,0.2330,-0.0641,-0.9529,0.3483,-13.6775,-4.6038
9392,-0.0551,0.1148,9.8213,0.1979,-0.0177,-0.9466,0.3686,-13.6459,-4.5985
9400,-0.0496,0.1179,9.8198,0.2150,-0.0373,-0.8607,0.3892,-13.6133,-4.5973
9408,-0.0424,0.1234,9.8179,0.2127,-0.1254,-0.8211,0.4098,-13.5809,-4.5964
9416,-0.0495,0.1234,9.8204,0.2638,-0.2444,-0.7939,0.4272,-13.5429,-4.5938
9424,-0.0436,0.1198,9.8208,0.1981,-0.3207,-0.7893,0.4445,-13.5051,-4.5916
9432,-0.0433,0.1306,9.8262,0.1538,-0.2231,-0.7261,0.4617,-13.4673,-4.5898
9440,-0.0494,0.1291,9.8151,0.1995,-0.2231,-0.7351,0.4773,-13.4368,-4.5950
9448,-0.0518,0.1354,9.8219,0.2619,-0.2177,-0.5810,0.4928,-13.4064,-4.6005
9456,-0.0548,0.1324,9.8208,0.2015,-0.2553,-0.5724,0.5113,-13.3730,-4.5997
9464,-0.0512,0.1320,9.8294,0.2558,-0.2325,-0.6574,0.5312,-13.3402,-4.6014
9472,-0.0524,0.1253,9.8262,0.1957,-0.2908,-0.6294,0.5510,-13.3075,-4.6033
9480,-0.0458,0.1069,9.8342,0.2609,-0.2291,-0.5359,0.5672,-13.2749,-4.6102
9488,-0.0517,0.0989,9.8247,0.2433,-0.1675,-0.5772,0.5842,-13.2383,-4.6103
9496,-0.0534,0.0976,9.8196,0.2690,-0.2286,-0.5500,0.5997,-13.2039,-4.6137
9504,-0.0440,0.0860,9.8142,0.2510,-0.2950,-0.5480,0.6176,-13.1711,-4.6149
9512,-0.0550,0.0741,9.8207,0.2632,-0.2865,-0.5488,0.6354,-13.1384,-4.6165
9520,-0.0596,0.0729,9.8247,0.3014,-0.2170,-0.4162,0.6531,-13.1057,-4.6184
9528,-0.0527,0.0763,9.8324,0.2927,-0.1666,-0.4121,0.6718,-13.0757,-4.6256
9536,-0.0489,0.0726,9.8294,0.3243,-0.1477,-0.3548,0.6903,-13.0458,-4.6332
9544,-0.0390,0.0766,9.8267,0.3225,-0.1884,-0.3187,0.7037,-13.0114,-4.6365
9552,-0.0468,0.0737,9.8301,0.3022,-0.2245,-0.2148,0.7171,-12.9771,-4.6400
9560,-0.0380,0.0726,9.8246,0.3174,-0.2778,-0.2221,0.7303,-12.9429,-4.6439
9568,-0.0510,0.0751,9.8319,0.2919,-0.2327,-0.1812,0.7430,-12.9068,-4.6511
9576,-0.0614,0.0734,9.8303,0.2623,-0.2723,-0.1686,0.7612,-12.8809,-4.6611
9584,-0.0590,0.0790,9.8215,0.2792,-0.2834,-0.1380,0.7792,-12.8551,-4.6713
9592,-0.0522,0.0765,9.8168,0.2741,-0.2488,-0.1860,0.7997,-12.8202,-4.6768
9600,-0.0479,0.0746,9.8112,0.2692,-0.1890,-0.0826,0.8156,-12.7875,-4.6856
9608,-0.0440,0.0810,9.8125,0.2245,-0.2331,-0.0664,0.8314,-12.7548,-4.6886
9616,-0.0578,0.0792,9.8086,0.2485,-0.1926,-0.0589,0.8456,-12.7243,-4.6963
9624,-0.0607,0.0779,9.8115,0.2127,-0.0900,-0.1797,0.8597,-12.6939,-4.7044
9632,-0.0588,0.0868,9.8086,0.2558,-0.1144,-0.1593,0.8737,-12.6635,-4.7127
9640,-0.0607,0.0999,9.8070,0.2597,-0.1725,-0.2357,0.8907,-12.6327,-4.7277
9648,-0.0656,0.0876,9.8068,0.2955,-0.0787,-0.2955,0.9076,-12.6021,-4.7430
9656,-0.0628,0.0969,9.8135,0.3030,-0.1250,-0.3366,0.9229,-12.5715,-4.7535
9664,-0.0652,0.1086,9.8091,0.2541,-0.1213,-0.2960,0.9382,-12.5410,-4.7642
9672,-0.0524,0.0977,9.8110,0.2688,-0.1844,-0.2517,0.9523,-12.5080,-4.7742
9680,-0.0513,0.0874,9.8060,0.2268,-0.2474,-0.2521,0.9699,-12.4802,-4.7818
9688,-0.0439,0.0940,9.8027,0.3040,-0.3076,-0.2018,0.9869,-12.4505,-4.7967
9696,-0.0404,0.0968,9.8016,0.3298,-0.2666,-0.3191,1.0009,-12.4213,-4.8063
9704,-0.0481,0.0962,9.8052,0.3144,-0.3233,-0.3112,1.0147,-12.3922,-4.8161
9712,-0.0529,0.1015,9.8116,0.2331,-0.3323,-0.3490,1.0275,-12.3623,-4.8247
9720,-0.0508,0.1054,9.8087,0.2913,-0.3035,-0.2971,1.0412,-12.3308,-4.8359
9728,-0.0494,0.1040,9.8061,0.2537,-0.4413,-0.3355,1.0538,-12.2995,-4.8438
9736,-0.0440,0.1068,9.7997,0.3510,-0.4050,-0.3803,1.0664,-12.2683,-4.8520
9744,-0.0436,0.1147,9.7980,0.3268,-0.3864,-0.3457,1.0789,-12.2372,-4.8604
9752,-0.0365,0.1174,9.8087,0.3276,-0.3819,-0.3286,1.0928,-12.2106,-4.8770
9760,-0.0373,0.1207,9.7997,0.2217,-0.3989,-0.4163,1.1067,-12.1842,-4.8938
9768,-0.0335,0.1233,9.7989,0.2431,-0.4126,-0.3749,1.1200,-12.1548,-4.9052
9776,-0.0297,0.1274,9.7977,0.2102,-0.3856,-0.3592,1.1333,-12.1255,-4.9168
9784,-0.0289,0.1389,9.7998,0.2321,-0.3811,-0.4216,1.1459,-12.0943,-4.9276
9792,-0.0250,0.1301,9.7949,0.2504,-0.4729,-0.4785,1.1546,-12.0602,-4.9406
9800,-0.0301,0.1313,9.8014,0.2252,-0.4033,-0.4477,1.1671,-12.0292,-4.9543
9808,-0.0338,0.1283,9.8099,0.2784,-0.4380,-0.3461,1.1806,-12.0007,-4.9682
9816,-0.0317,0.1247,9.8164,0.3267,-0.3486,-0.3984,1.1940,-11.9724,-4.9822
9824,-0.0385,0.1278,9.8139,0.4022,-0.3618,-0.2671,1.2094,-11.9436,-4.9909
9832,-0.0501,0.1269,9.8141,0.3730,-0.2890,-0.2294,1.2227,-11.9144,-5.0028
9840,-0.0482,0.1202,9.7977,0.3584,-0.2675,-0.1801,1.2344,-11.8883,-5.0144
9848,-0.0489,0.1169,9.7916,0.2939,-0.3535,-0.1063,1.2461,-11.8623,-5.0261
9856,-0.0590,0.1162,9.7902,0.2854,-0.2518,-0.0944,1.2577,-11.8364,-5.0380
9864,-0.0573,0.1128,9.7940,0.2747,-0.2878,-0.2297,1.2728,-11.8065,-5.0550
9872,-0.0584,0.1033,9.7910,0.3125,-0.2903,-0.1084,1.2878,-11.7767,-5.0722
9880,-0.0549,0.1061,9.7928,0.3032,-0.3620,-0.1230,1.2947,-11.7510,-5.0870
9888,-0.0494,0.0987,9.8095,0.2624,-0.3426,-0.0917,1.1835,-11.7254,-5.1020
9896,-0.0449,0.1020,9.8086,0.2580,-0.2680,-0.0964,1.2004,-11.6984,-5.1171
9904,-0.0381,0.0954,9.8074,0.2165,-0.3247,0.0084,1.2127,-11.6699,-5.1329
9912,-0.0415,0.0876,9.8173,0.1821,-0.2483,-0.0514,1.2254,-11.6400,-5.1478
9920,-0.0396,0.0773,9.8175,0.1466,-0.2978,-0.0632,1.2433,-11.6132,-5.1623
9928,-0.0461,0.0772,9.8200,0.0699,-0.2678,-0.0425,1.2615,-11.5865,-5.1770
9936,-0.0560,0.0688,9.8050,0.0953,-0.3005,-0.0174,1.2755,-11.5564,-5.1919
9944,-0.0404,0.0686,9.8027,0.0929,-0.2811,0.0306,1.2937,-11.5284,-5.2123
9952,-0.0432,0.0697,9.7916,0.0852,-0.2599,-0.0568,1.3088,-11.4989,-5.2303
9960,-0.0388,0.0812,9.7897,0.0806,-0.2689,-0.0737,1.3241,-11.4696,-5.2485
9968,-0.0276,0.0784,9.7930,-0.0038,-0.1816,-0.0632,1.3398,-11.4403,-5.2668
9976,-0.0425,0.0877,9.7979,-0.0126,-0.2341,-0.0585,1.3552,-11.4067,-5.2832
9984,-0.0337,0.0925,9.7981,-0.0796,-0.1349,-0.0273,1.3709,-11.3731,-5.2997
9992,-0.0220,0.1036,9.8107,-0.0850,-0.2187,0.0265,1.3858,-11.3461,-5.3129
10000,-0.0251,0.1055,9.8179,-0.1302,-0.1576,0.0512,1.4025,-11.3157,-5.3277
10008,-0.0303,0.0945,9.8085,-0.0561,-0.0831,0.1069,1.4195,-11.2855,-5.3426
10016,-0.0349,0.0973,9.8069,-0.0945,-0.0545,0.0695,1.4397,-11.2587,-5.3606
10024,-0.0354,0.0970,9.8118,-0.0940,-0.0512,0.0764,1.4581,-11.2261,-5.3757
10032,-0.0386,0.1000,9.8075,-0.0881,-0.0827,0.1017,1.4783,-11.1936,-5.3924
10040,-0.0384,0.1095,9.8096,-0.0905,-0.1448,0.1472,1.4992,-11.1608,-5.4073
10048,-0.0395,0.1086,9.8001,-0.0314,-0.1696,0.1186,1.5203,-11.1280,-5.4223
10056,-0.0282,0.1068,9.8056,-0.0203,-0.1746,0.1181,1.5387,-11.1012,-5.4393
10064,-0.0353,0.1180,9.8061,0.0223,-0.1580,0.1362,1.5608,-11.0770,-5.4540
10072,-0.0280,0.1240,9.8083,0.0178,-0.0835,0.0735,1.5831,-11.0529,-5.4688
10080,-0.0301,0.1226,9.8025,0.0428,-0.1136,0.1149,1.6026,-11.0308,-5.4817
10088,-0.0430,0.1263,9.7955,0.0827,-0.0384,0.0558,1.6224,-11.0088,-5.4947
10096,-0.0414,0.1283,9.7919,0.0621,-0.0197,0.1113,1.6423,-10.9869,-5.5078
10104,-0.0477,0.1283,9.7955,0.0239,-0.0660,0.1590,1.6630,-10.9630,-5.5305
10112,-0.0465,0.1151,9.7978,0.0326,-0.0861,0.1006,1.6844,-10.9358,-5.5477
10120,-0.0455,0.1278,9.7871,0.0196,-0.0654,-0.0085,1.7059,-10.9086,-5.5651
10128,-0.0446,0.1205,9.7830,0.0765,-0.1177,-0.0302,1.7302,-10.8830,-5.5859
10136,-0.0478,0.1286,9.7942,0.0562,0.0004,-0.0269,1.7487,-10.8605,-5.6039
10144,-0.0503,0.1267,9.7957,0.0289,-0.1000,-0.0905,1.7743,-10.8345,-5.6245
10152,-0.0521,0.1237,9.7935,-0.0053,-0.1187,-0.1299,1.7986,-10.8057,-5.6451
10160,-0.0529,0.1264,9.7910,0.0500,-0.0299,0.0190,1.8230,-10.7769,-5.6658
10168,-0.0512,0.1202,9.8028,-0.0757,-0.0277,0.0521,1.8417,-10.7527,-5.6821
10176,-0.0543,0.1201,9.8031,-0.1000,-0.0415,0.0304,1.8636,-10.7301,-5.7019
10184,-0.0507,0.1254,9.8065,-0.1659,0.0012,-0.0490,1.8857,-10.7075,-5.7218
10192,-0.0498,0.1184,9.8091,-0.2155,0.0181,0.0058,1.9098,-10.6830,-5.7389
10200,-0.0466,0.1157,9.8092,-0.2523,-0.0218,-0.0859,1.9342,-10.6585,-5.7560
10208,-0.0606,0.1356,9.8030,-0.2315,-0.0972,-0.0855,1.9587,-10.6342,-5.7731
10216,-0.0605,0.1267,9.8073,-0.1743,-0.0147,-0.1705,1.9848,-10.6030,-5.7899
10224,-0.0613,0.1196,9.8144,-0.1329,-0.0825,-0.2278,2.0087,-10.5769,-5.8082
10232,-0.0635,0.1118,9.8204,-0.0454,-0.1713,-0.0986,2.0366,-10.5498,-5.8285
10240,-0.0649,0.1165,9.7985,-0.0790,-0.1869,-0.1376,2.0646,-10.5228,-5.8489
10248,-0.0726,0.1099,9.7978,-0.0444,-0.1938,-0.1084,2.0904,-10.5008,-5.8649
10256,-0.0682,0.1035,9.8031,-0.1340,-0.0670,-0.1443,2.1123,-10.4760,-5.8824
10264,-0.0674,0.1118,9.8019,-0.1637,-0.0578,-0.1734,2.1393,-10.4502,-5.9055
10272,-0.0712,0.1197,9.8036,-0.1362,0.1429,-0.1799,2.1625,-10.4226,-5.9246
10280,-0.0697,0.1228,9.8097,-0.0831,0.1110,-0.2234,2.1859,-10.3950,-5.9438
10288,-0.0751,0.1183,9.8070,-0.0964,0.1577,-0.1691,2.2094,-10.3690,-5.9616
10296,-0.0741,0.1143,9.7987,-0.0184,0.1597,-0.0238,2.2330,-10.3430,-5.9794
10304,-0.0736,0.1029,9.7989,-0.0398,0.2070,0.0699,2.2572,-10.3201,-5.9968
10312,-0.0728,0.1053,9.8059,-0.0097,0.1455,0.1648,2.2816,-10.2973,-6.0142
10320,-0.0683,0.1129,9.8095,-0.0182,0.1748,0.1222,2.3061,-10.2745,-6.0317
10328,-0.0661,0.1135,9.8164,0.0191,0.2001,0.3001,2.3332,-10.2518,-6.0507
10336,-0.0605,0.1190,9.8112,0.1027,0.2456,0.2622,2.3624,-10.2287,-6.0703
10344,-0.0609,0.1240,9.8089,0.0919,0.3211,0.2154,2.3926,-10.2047,-6.0899
10352,-0.0544,0.1303,9.7958,0.1563,0.2653,0.2585,2.4230,-10.1807,-6.1096
10360,-0.0421,0.1311,9.7944,0.1193,0.2786,0.3612,2.4500,-10.1529,-6.1302
10368,-0.0411,0.1313,9.7955,0.1211,0.4300,0.3606,2.4736,-10.1325,-6.1475
10376,-0.0552,0.1333,9.7973,0.1736,0.3962,0.3201,2.5023,-10.1053,-6.1687
10384,-0.0615,0.1264,9.7890,0.2478,0.3291,0.4227,2.5277,-10.0783,-6.1866
10392,-0.0686,0.1220,9.7892,0.1454,0.3610,0.4595,2.5532,-10.0513,-6.2045
10400,-0.0723,0.1308,9.7830,0.1328,0.3621,0.3747,2.5812,-10.0258,-6.2239
10408,-0.0675,0.1270,9.7833,0.1874,0.2619,0.4296,2.6093,-10.0004,-6.2433
