Timestamp_ms,AccX_Filt,AccY_Filt,AccZ_Filt,GyrX_Filt,GyrY_Filt,GyrZ_Filt,MagX_Filt,MagY_Filt,MagZ_Filt
5233,-0.0225,-0.0581,9.8570,-2.1230,-0.2651,-1.7293,2.9700,-60.8850,-59.8050
5240,-0.0250,-0.0560,9.8477,-1.0628,0.9824,-1.4901,3.0959,-63.4654,-62.3396
5248,-0.0210,-0.0213,9.8348,-0.1988,0.8301,-1.0639,3.1301,-64.0227,-63.1733
5256,-0.0202,-0.0309,9.8839,0.1273,0.9224,-1.1107,3.2126,-63.7845,-63.4426
5264,-0.0400,-0.0307,9.8773,0.1633,0.8546,-0.7444,3.4904,-63.8966,-63.3338
5272,-0.0134,-0.0254,9.8659,0.0530,0.8713,-1.1610,3.6708,-63.8680,-63.1570
5280,-0.0034,-0.0277,9.8807,-0.1154,0.8386,-0.9866,3.7949,-63.7591,-62.9418
5288,0.0015,-0.0308,9.8606,-0.1319,1.1135,-0.8000,3.6432,-63.4522,-62.6479
5296,-0.0160,-0.0132,9.8454,0.0320,1.0949,-0.6753,3.5210,-63.1451,-62.3513
5304,-0.0187,-0.0196,9.8414,-0.0099,0.8096,-0.4077,3.5383,-62.9870,-62.2019
5312,-0.0261,-0.0151,9.8428,-0.0326,0.7169,-0.2408,3.5493,-62.8029,-62.0253
5320,-0.0317,-0.0267,9.8506,-0.0021,0.6612,0.0366,3.5558,-62.5997,-61.8286
5328,-0.0366,-0.0196,9.8449,-0.0225,0.6138,-0.0309,3.5929,-62.2563,-61.5483
5336,-0.0325,-0.0181,9.8427,-0.0061,0.6263,-0.0163,3.6012,-61.9946,-61.3195
5344,-0.0310,-0.0098,9.8503,-0.0194,0.6463,-0.0817,3.6061,-61.7588,-61.0530
5352,-0.0227,-0.0034,9.8516,0.0171,0.7735,0.1760,3.6177,-61.3860,-60.9141
5360,-0.0222,-0.0013,9.8497,0.1124,0.7816,0.3714,3.6261,-61.0236,-60.7579
5368,-0.0237,-0.0056,9.8399,0.1855,0.8373,0.3287,3.5240,-60.7198,-60.4549
5376,-0.0241,-0.0090,9.8436,0.1271,0.7553,0.3718,3.5253,-60.4421,-60.1305
5384,-0.0239,-0.0248,9.8459,0.0667,0.7863,0.5238,3.4877,-60.1422,-59.7957
5392,-0.0309,-0.0126,9.8555,0.0590,0.9350,0.4577,3.4594,-59.8732,-59.4951
5400,-0.0226,-0.0194,9.8454,0.1338,0.9431,0.4186,3.4324,-59.6040,-59.1970
5408,-0.0156,-0.0288,9.8363,0.1851,0.8744,0.5074,3.4064,-59.3674,-58.9143
5416,-0.0182,-0.0331,9.8389,0.3308,0.6992,0.5385,3.3877,-59.0411,-58.6391
5424,-0.0117,-0.0420,9.8397,0.3327,0.7030,0.5374,3.3693,-58.7198,-58.3647
5432,-0.0077,-0.0441,9.8465,0.3345,0.7359,0.4680,3.3686,-58.4492,-58.0913
5440,-0.0147,-0.0326,9.8430,0.3362,0.5777,0.4354,3.3669,-58.1796,-57.7800
5448,-0.0085,-0.0337,9.8269,0.4512,0.4899,0.5090,3.3643,-57.9109,-57.4726
5456,-0.0090,-0.0361,9.8317,0.3412,0.3644,0.5033,3.3093,-57.6433,-57.1688
5464,-0.0025,-0.0415,9.8314,0.3241,0.2928,0.4457,3.2571,-57.3769,-56.8684
5472,-0.0003,-0.0386,9.8463,0.3383,0.2832,0.4524,3.2073,-57.1116,-56.5713
5480,0.0048,-0.0309,9.8373,0.4116,0.4000,0.2608,3.1833,-56.8475,-56.2866
5488,-0.0014,-0.0408,9.8296,0.3501,0.3587,0.2555,3.2416,-56.5755,-56.0680
5496,-0.0012,-0.0352,9.8254,0.3597,0.3462,0.1417,3.2205,-56.3054,-55.7598
5504,0.0027,-0.0329,9.8285,0.3717,0.2644,0.0344,3.2039,-56.0542,-55.4641
5512,0.0098,-0.0358,9.8185,0.2615,0.2074,-0.0150,3.1874,-55.8039,-55.1717
5520,0.0017,-0.0330,9.8208,0.2176,0.1851,0.2227,3.1831,-55.5341,-54.8987
5528,-0.0024,-0.0268,9.8043,0.2103,0.1982,0.1252,3.1664,-55.2979,-54.6278
5536,-0.0080,-0.0298,9.8002,0.2317,0.1624,0.0782,3.1304,-55.0235,-54.3783
5544,-0.0058,-0.0389,9.7984,0.2126,0.2074,0.0506,3.0879,-54.7590,-54.1487
5552,-0.0078,-0.0376,9.8040,0.1915,0.1097,0.1480,3.0468,-54.4964,-53.9193
5560,-0.0033,-0.0364,9.8068,0.1101,0.0477,0.0811,3.0069,-54.2356,-53.6902
5568,-0.0006,-0.0335,9.7930,0.0800,0.1114,0.0871,2.9752,-53.9872,-53.4265
5576,0.0055,-0.0332,9.7927,0.0597,0.0637,0.1567,2.9442,-53.7401,-53.1648
5584,0.0133,-0.0315,9.7943,0.0487,0.0376,0.1509,2.9140,-53.4944,-52.9319
5592,0.0026,-0.0223,9.7885,0.0934,0.0018,0.1731,2.8844,-53.2500,-52.6998
5600,0.0052,-0.0171,9.7932,0.1387,-0.0653,0.1226,2.8555,-53.0069,-52.4685
5608,-0.0048,-0.0242,9.7921,0.1791,-0.1566,0.1294,2.8492,-52.7997,-52.2569
5616,-0.0051,-0.0261,9.8088,0.1438,-0.1205,0.0812,2.8272,-52.5523,-52.0238
5624,0.0000,-0.0151,9.8052,0.1374,-0.1761,0.0817,2.8356,-52.2914,-51.7617
5632,0.0029,-0.0306,9.8002,0.1122,-0.1284,-0.0405,2.8433,-52.0326,-51.5017
5640,-0.0000,-0.0297,9.7929,0.1045,-0.1427,-0.0319,2.8210,-51.7904,-51.2585
5648,-0.0035,-0.0329,9.8027,0.1324,-0.0749,-0.0753,2.7820,-51.5697,-51.0198
5656,-0.0095,-0.0221,9.8070,0.1320,-0.0997,-0.0435,2.7775,-51.3273,-50.7965
5664,-0.0130,-0.0124,9.8118,0.0720,-0.0773,-0.0619,2.7727,-51.0864,-50.5741
5672,-0.0085,-0.0145,9.8125,0.1364,-0.0776,0.0044,2.7595,-50.8688,-50.3446
5680,-0.0094,-0.0187,9.8109,0.0872,-0.1022,-0.1186,2.7463,-50.6174,-50.1111
5688,-0.0020,-0.0170,9.8080,0.0456,-0.1553,-0.1228,2.7279,-50.4019,-49.8660
5696,0.0038,-0.0219,9.8154,0.1218,-0.1252,-0.1242,2.7020,-50.1873,-49.6227
5704,0.0095,-0.0181,9.8081,0.1272,-0.0856,-0.1416,2.6765,-49.9734,-49.3812
5712,0.0050,-0.0142,9.8073,0.1458,-0.0694,-0.1528,2.6514,-49.7605,-49.1416
5720,0.0083,-0.0212,9.8043,0.2012,-0.0593,-0.2093,2.6268,-49.5239,-48.9209
5728,0.0026,-0.0193,9.7994,0.2192,-0.1302,-0.2256,2.6025,-49.2890,-48.7013
5736,-0.0116,-0.0194,9.7981,0.2230,-0.0959,-0.1714,2.5976,-49.0605,-48.4901
5744,-0.0323,-0.0136,9.7923,0.3474,-0.1061,-0.2403,2.5924,-48.8334,-48.2798
5752,-0.0122,-0.0188,9.7967,0.3295,-0.1265,-0.2257,2.5871,-48.6077,-48.0706
5760,-0.0046,-0.0308,9.7957,0.3820,-0.2185,-0.1555,2.5679,-48.3926,-47.8532
5768,0.0110,-0.0229,9.7879,0.4162,-0.1831,-0.1688,2.5490,-48.1853,-47.6483
5776,-0.0031,-0.0195,9.7849,0.4622,-0.2269,-0.2323,2.5634,-47.9900,-47.4223
5784,-0.0333,-0.0191,9.7859,0.4687,-0.2099,-0.1753,2.5770,-47.7953,-47.1978
5792,-0.0568,-0.0147,9.7968,0.4615,-0.2953,-0.1368,2.5684,-47.5842,-46.9599
5800,-0.0887,-0.0239,9.7999,0.5001,-0.2807,-0.1054,2.5493,-47.3805,-46.7345
5808,-0.1161,-0.0368,9.8095,0.5692,-0.3255,-0.1449,2.5533,-47.1736,-46.5337
5816,-0.1418,-0.0243,9.8058,0.5309,-0.3310,-0.1667,2.5363,-46.9473,-46.3175
5824,-0.1642,-0.0139,9.8208,0.5424,-0.2506,-0.2569,2.5194,-46.7225,-46.1026
5832,-0.1448,0.0051,9.8051,0.5133,-0.2353,-0.3459,2.5127,-46.5255,-45.8711
5840,-0.1692,0.0018,9.7992,0.5122,-0.2981,-0.5138,2.4901,-46.3195,-45.6652
5848,-0.1403,0.0124,9.7997,0.5672,-0.3421,-0.5728,2.4756,-46.1166,-45.4723
5856,-0.1468,0.0120,9.8093,0.5023,-0.4002,-0.6372,2.4612,-45.9148,-45.2804
5864,-0.1605,-0.0002,9.8034,0.4590,-0.3356,-0.7869,2.4469,-45.7141,-45.0893
5872,-0.1383,-0.0071,9.8159,0.4069,-0.3780,-0.9300,2.4328,-45.5089,-44.8955
5880,-0.1610,0.0012,9.8385,0.4158,-0.3464,-0.9521,2.4186,-45.3048,-44.7026
5888,-0.1666,0.0151,9.8476,0.3682,-0.3322,-1.1146,2.4194,-45.1131,-44.5052
5896,-0.1378,0.0053,9.8408,0.4296,-0.3400,-1.1419,2.4199,-44.9223,-44.3089
5904,-0.1943,0.0079,9.8242,0.3787,-0.3314,-1.3148,2.4202,-44.7325,-44.1138
5912,-0.2367,0.0052,9.8283,0.3408,-0.3366,-1.4721,2.4113,-44.5240,-43.9162
5920,-0.3189,0.0069,9.8151,0.3179,-0.2695,-1.7453,2.3847,-44.3363,-43.7199
5928,-0.4023,0.0189,9.7995,0.3334,-0.2347,-2.0359,2.3672,-44.1356,-43.5404
5936,-0.4956,0.0092,9.8001,0.2308,-0.2547,-2.2310,2.3499,-43.9361,-43.3617
5944,-0.5399,-0.0086,9.8073,0.3114,-0.2632,-2.3775,2.3294,-43.7395,-43.1702
5952,-0.5740,-0.0243,9.8035,0.3378,-0.2020,-2.5924,2.3243,-43.5509,-42.9815
5960,-0.5899,-0.0148,9.7890,0.3924,0.0060,-2.7711,2.3074,-43.3583,-42.7939
5968,-0.5583,0.0015,9.8033,0.3833,0.2768,-2.8539,2.3073,-43.1669,-42.5991
5976,-0.4563,0.0012,9.7729,0.3719,0.3891,-2.7438,2.3069,-42.9766,-42.4056
5984,-0.4410,-0.0464,9.7618,0.3290,0.3098,-2.6304,2.2950,-42.7825,-42.2116
5992,-0.4236,-0.0867,9.7609,0.2746,0.1218,-2.6314,2.2816,-42.5912,-42.0285
6000,-0.3977,-0.1492,9.8220,0.2999,0.0355,-2.5416,2.2698,-42.4154,-41.8560
6008,-0.1516,-0.1182,9.8505,0.3295,-0.0551,-2.2610,2.2581,-42.2404,-41.6843
6016,-0.2828,-0.0607,9.7842,0.3338,-0.0296,-2.2382,2.2464,-42.0664,-41.5135
6024,-0.2358,-0.0231,9.7706,0.2232,-0.1627,-2.4003,2.2333,-41.8746,-41.3234
6032,-0.2419,-0.0119,9.8308,0.1468,-0.1832,-2.1900,2.2203,-41.6840,-41.1345
6040,-0.2206,0.0078,9.7541,0.1110,-0.3122,-2.1409,2.2058,-41.5052,-40.9635
6048,-0.2437,0.0297,9.7526,0.0369,-0.2355,-2.1152,2.1914,-41.3275,-40.7934
6056,-0.3124,0.0441,9.7562,0.0913,-0.3542,-2.0694,2.1771,-41.1507,-40.6242
6064,-0.2831,0.0425,9.7950,0.1220,-0.2997,-2.0416,2.1645,-40.9838,-40.4425
6072,-0.2738,0.0447,9.7927,0.1380,-0.5116,-1.7243,2.1563,-40.8059,-40.2620
6080,-0.1242,0.0567,9.8854,0.0493,-0.5436,-1.4902,2.1510,-40.6378,-40.0999
6088,-0.1537,0.0603,9.9352,0.0712,-0.4648,-1.3436,2.1457,-40.4705,-39.9387
6096,-0.1376,0.1023,9.9123,0.0254,-0.3494,-1.2675,2.1246,-40.3012,-39.7668
6104,-0.1312,0.1248,9.8624,0.0724,-0.4231,-1.0428,2.1122,-40.1243,-39.5831
6112,-0.1086,0.0864,9.8570,0.0799,-0.4056,-0.9745,2.1013,-39.9569,-39.3964
6120,-0.1168,0.0790,9.8739,0.1511,-0.3889,-0.6345,2.0933,-39.7820,-39.2360
6128,-0.0860,0.0499,9.8814,0.1285,-0.2795,-0.4614,2.0853,-39.6081,-39.0764
6136,-0.0604,0.0182,9.8586,0.0829,-0.2816,-0.3253,2.0649,-39.4476,-38.9190
6144,-0.0682,0.0113,9.9064,0.0366,-0.3343,-0.0697,2.0448,-39.2878,-38.7624
6152,-0.0443,0.0065,9.8721,0.0937,-0.4406,0.0200,2.0329,-39.1194,-38.6052
6160,-0.1038,0.0217,9.8265,0.2123,-0.2917,0.1031,2.0211,-38.9520,-38.4487
6168,0.0502,0.0191,9.8176,0.3337,-0.2239,0.0386,2.0095,-38.7854,-38.2931
6176,-0.0643,0.0039,9.7586,0.2792,-0.2284,0.0702,2.0097,-38.6291,-38.1264
6184,0.1196,-0.0161,9.8472,0.4030,-0.1928,0.1432,2.0098,-38.4735,-37.9606
6192,0.0054,0.0235,9.8478,0.4014,-0.2786,-0.0271,1.9968,-38.3083,-37.7997
6200,-0.0055,0.0116,9.8132,0.3758,-0.2941,-0.0139,1.9839,-38.1440,-37.6397
6208,-0.0140,-0.0105,9.8520,0.4981,-0.3836,0.0680,1.9826,-37.9794,-37.4946
6216,-0.0863,-0.0534,9.8307,0.4257,-0.4344,0.1784,1.9787,-37.8335,-37.3363
6224,-0.0771,-0.0826,9.8196,0.4017,-0.1711,0.3746,1.9785,-37.6756,-37.1750
6232,-0.0455,-0.0648,9.8459,0.2935,-0.0899,0.2822,1.9808,-37.5148,-37.0309
6240,-0.0128,-0.0715,9.8744,0.2754,-0.0256,0.2978,1.9828,-37.3550,-36.8875
6248,-0.0907,-0.1045,9.8532,0.2634,0.1318,0.2915,1.9749,-37.2046,-36.7398
6256,-0.0952,-0.1115,9.8240,0.2172,0.0451,0.3200,1.9670,-37.0550,-36.5904
6264,-0.1029,-0.1078,9.8167,0.1837,0.0421,0.3660,1.9652,-36.8989,-36.4466
6272,-0.0875,-0.0795,9.8251,0.1891,0.0980,0.3593,1.9657,-36.7508,-36.3072
6280,-0.1155,-0.0670,9.7995,0.1648,0.1487,0.2676,1.9661,-36.6035,-36.1683
6288,-0.1158,-0.0512,9.7713,0.1843,0.0372,0.3532,1.9581,-36.4629,-36.0182
6296,-0.0108,-0.0118,9.8078,0.1523,-0.0187,0.2031,1.9501,-36.3230,-35.8690
6304,-0.0511,0.0243,9.8330,0.2283,0.1331,0.3316,1.9398,-36.1790,-35.7275
6312,-0.0940,0.0519,9.8162,0.3463,0.1903,0.3211,1.9296,-36.0357,-35.5868
6320,-0.0617,0.0683,9.8379,0.4965,0.1170,0.2897,1.9194,-35.8931,-35.4467
6328,-0.0894,0.0484,9.8557,0.3575,0.2549,0.2010,1.9138,-35.7350,-35.3062
6336,-0.1332,0.0592,9.8554,0.2752,0.2374,0.2122,1.9083,-35.5779,-35.1664
6344,-0.2161,0.0211,9.8169,0.3272,0.3061,0.1509,1.9039,-35.4194,-35.0318
6352,-0.1776,0.0386,9.8121,0.3636,0.2917,-0.0144,1.9017,-35.2698,-34.8911
6360,-0.2103,0.0271,9.8224,0.3611,0.2806,-0.0524,1.8995,-35.1210,-34.7511
6368,-0.1984,0.0271,9.8334,0.3346,0.3154,-0.0861,1.8927,-34.9776,-34.6073
6376,-0.2486,0.0208,9.8316,0.2933,0.2632,-0.1664,1.8871,-34.8360,-34.4688
6384,-0.2672,0.0496,9.8090,0.2005,0.3548,-0.2778,1.8870,-34.6984,-34.3276
6392,-0.2713,0.0088,9.8114,0.1465,0.3569,-0.2563,1.8868,-34.5615,-34.1872
6400,-0.2522,0.0088,9.8158,0.1481,0.3937,-0.2518,1.8702,-34.4254,-34.0476
6408,-0.2827,-0.0395,9.8029,0.2030,0.5888,-0.0608,1.8657,-34.2877,-33.9151
6416,-0.2753,-0.0701,9.8117,0.1328,0.6181,0.0072,1.8654,-34.1410,-33.7747
6424,-0.2326,-0.0508,9.8175,0.0310,0.4940,-0.1091,1.8726,-33.9931,-33.6351
6432,-0.2427,-0.0415,9.8445,0.0483,0.7594,-0.1137,1.8797,-33.8459,-33.4961
6440,-0.2159,-0.0295,9.8448,0.0302,0.6559,-0.0834,1.8791,-33.7134,-33.3633
6448,-0.1524,-0.0304,9.8647,0.0689,0.5543,-0.0997,1.8785,-33.5815,-33.2311
6456,-0.1724,-0.0363,9.8367,0.1646,0.4544,-0.1474,1.8736,-33.4409,-33.0974
6464,-0.1231,-0.0384,9.8610,0.0881,0.3215,-0.2463,1.8688,-33.3010,-32.9645
6472,-0.1951,-0.0463,9.8397,0.0683,0.1491,-0.2848,1.8639,-33.1619,-32.8322
6480,-0.1641,-0.0333,9.8460,0.1053,0.2696,-0.2924,1.8559,-33.0194,-32.7048
6488,-0.2245,-0.0426,9.8293,0.0954,0.2062,-0.4143,1.8480,-32.8778,-32.5779
6496,-0.1948,-0.0432,9.8602,0.1739,0.2069,-0.3362,1.8462,-32.7348,-32.4425
6504,-0.2035,-0.0356,9.8304,0.2703,0.3568,-0.2241,1.8505,-32.5998,-32.3190
6512,-0.1899,-0.0387,9.8461,0.1919,0.3909,-0.2184,1.8546,-32.4655,-32.1961
6520,-0.1713,-0.0246,9.8718,0.2075,0.5515,-0.1035,1.8536,-32.3370,-32.0788
6528,-0.2054,-0.0525,9.8527,0.2038,0.5264,0.2330,1.8486,-32.1951,-31.9490
6536,-0.2209,-0.0635,9.8673,0.2456,0.6890,0.3975,1.8366,-32.0639,-31.8149
6544,-0.1342,-0.0694,9.8768,0.3068,0.7966,0.6588,1.8346,-31.9335,-31.6934
6552,-0.1422,-0.0106,9.8622,0.3121,0.7928,0.6660,1.8326,-31.8038,-31.5725
6560,-0.1878,-0.0010,9.8376,0.1038,0.5171,0.8248,1.8354,-31.6669,-31.4551
6568,-0.1612,-0.0015,9.8072,0.2566,0.4508,0.8674,1.8411,-31.5327,-31.3324
6576,-0.1421,-0.0028,9.8238,0.2641,0.0648,1.1055,1.8466,-31.3992,-31.2103
6584,-0.2601,-0.0091,9.7947,0.0606,0.0450,1.1304,1.8453,-31.2762,-31.0908
6592,-0.3250,0.0040,9.7651,0.2100,-0.0726,1.3890,1.8439,-31.1537,-30.9718
6600,-0.4374,0.0149,9.7698,0.1955,0.1002,1.4656,1.8425,-31.0319,-30.8534
6608,-0.2727,0.1208,9.6297,0.1203,0.1615,1.5601,1.8401,-30.9022,-30.7365
6616,-0.3232,0.1302,9.6664,0.0537,0.0682,2.0212,1.8377,-30.7731,-30.6202
6624,-0.3010,0.0940,9.6331,-0.0473,0.0055,2.1928,1.8353,-30.6447,-30.5044
6632,-0.2627,0.0945,9.6476,-0.0639,-0.0490,2.1996,1.8291,-30.5255,-30.3882
6640,-0.2540,0.0512,9.6475,-0.1384,0.1308,2.1047,1.8211,-30.3947,-30.2773
6648,-0.2511,0.0713,9.6894,-0.0150,-0.0412,2.0486,1.8195,-30.2739,-30.1668
6656,-0.2444,0.0999,9.7341,0.0150,0.3249,1.8884,1.8143,-30.1482,-30.0486
6664,-0.2251,0.1099,9.7545,0.0037,0.3444,1.7778,1.8091,-30.0232,-29.9309
6672,-0.2546,0.1084,9.7451,-0.0817,0.5657,1.9014,1.8103,-29.8997,-29.8156
6680,-0.2303,0.0803,9.7645,0.0899,0.2013,1.6995,1.8142,-29.7833,-29.7018
6688,-0.2288,0.0771,9.7355,0.2353,0.1035,1.5519,1.8152,-29.6611,-29.5877
6696,-0.1787,0.0509,9.7535,0.1344,0.1167,1.7200,1.8081,-29.5414,-29.4795
6704,-0.1670,0.0514,9.7570,0.0245,0.1186,1.5608,1.8010,-29.4222,-29.3718
6712,-0.1474,0.0164,9.7793,0.1755,0.1231,1.6538,1.8047,-29.3055,-29.2664
6720,-0.1027,0.0106,9.8045,0.1758,0.1327,1.7775,1.7967,-29.1813,-29.1562
6728,-0.0546,0.0395,9.8333,-0.0638,0.3472,1.9678,1.7888,-29.0578,-29.0464
6736,-0.0689,0.0657,9.8046,-0.1517,0.2777,2.1950,1.7915,-28.9420,-28.9372
6744,-0.0636,0.0840,9.7828,-0.1317,0.1019,2.1857,1.7941,-28.8268,-28.8284
6752,-0.0301,0.1068,9.7972,-0.0939,0.1685,2.1954,1.7967,-28.7122,-28.7202
6760,0.0476,0.1170,9.8106,-0.0845,0.1655,2.0367,1.7975,-28.5843,-28.6213
6768,0.0669,0.1049,9.8383,-0.0594,0.2719,2.0317,1.7982,-28.4570,-28.5227
6776,0.1053,0.0684,9.8693,-0.1928,0.4537,1.8668,1.7946,-28.3357,-28.4099
6784,0.1177,0.0645,9.8946,-0.2190,0.3849,1.9758,1.7909,-28.2151,-28.2976
6792,0.1731,0.0373,9.8792,-0.2254,0.4391,1.9414,1.7872,-28.1054,-28.1936
6800,0.1736,0.0286,9.8517,-0.3062,0.4482,1.8312,1.7767,-27.9964,-28.0823
6808,0.2274,0.0158,9.8855,-0.2768,0.4890,1.7364,1.7740,-27.8802,-27.9853
6816,0.2268,0.0223,9.8673,-0.2753,0.4239,1.6671,1.7746,-27.7646,-27.8887
6824,0.2172,0.0365,9.8600,-0.0632,0.4497,1.6089,1.7752,-27.6531,-27.7832
6832,0.2176,0.0356,9.8698,-0.1378,0.2478,1.5585,1.7698,-27.5387,-27.6765
6840,0.2166,0.0599,9.8636,0.0069,0.4146,1.3610,1.7678,-27.4309,-27.5779
6848,0.2271,0.0728,9.8453,0.0173,0.2808,1.3081,1.7608,-27.3160,-27.4763
6856,0.1810,0.0421,9.8524,0.1686,0.2649,1.2496,1.7538,-27.2018,-27.3753
6864,0.2363,0.0047,9.8310,0.2226,0.1190,1.1936,1.7544,-27.0874,-27.2680
6872,0.1975,-0.0022,9.8290,0.2795,0.0541,1.0761,1.7515,-26.9811,-27.1621
6880,0.1889,-0.0381,9.7993,0.2727,0.0775,1.0757,1.7487,-26.8753,-27.0568
6888,0.1934,-0.0574,9.8176,0.2341,-0.0976,1.1473,1.7500,-26.7716,-26.9494
6896,0.1983,-0.0634,9.8064,0.3012,0.0524,1.1438,1.7512,-26.6685,-26.8426
6904,0.1677,-0.0712,9.8208,0.1467,-0.0949,1.2524,1.7524,-26.5659,-26.7364
6912,0.1596,-0.0663,9.8038,0.1163,0.1349,1.1536,1.7487,-26.4606,-26.6395
6920,0.1409,-0.0551,9.8185,-0.0087,0.2747,1.0778,1.7450,-26.3558,-26.5432
6928,0.1545,-0.0427,9.8322,-0.1203,0.1630,0.9707,1.7429,-26.2540,-26.4496
6936,0.1531,-0.0574,9.8478,-0.0084,0.1149,0.9802,1.7408,-26.1527,-26.3565
6944,0.1346,-0.0571,9.8037,0.0080,0.1409,0.8614,1.7354,-26.0511,-26.2566
6952,0.1583,-0.0491,9.7960,-0.0163,0.0298,0.7157,1.7365,-25.9452,-26.1651
6960,0.1402,-0.0577,9.7987,-0.1542,-0.0632,0.5604,1.7368,-25.8517,-26.0677
6968,0.1516,-0.0870,9.7861,-0.2115,-0.0641,0.4892,1.7275,-25.7492,-25.9715
6976,0.1295,-0.1171,9.7724,-0.2689,0.2124,0.4185,1.7182,-25.6473,-25.8758
6984,0.0859,-0.1024,9.7887,-0.2144,0.1675,0.0895,1.7114,-25.5435,-25.7805
6992,0.1256,-0.0896,9.7902,-0.2877,0.0578,-0.0544,1.7015,-25.4472,-25.6809
7000,0.0837,-0.0848,9.7807,-0.3257,0.2570,-0.0881,1.6916,-25.3397,-25.5888
7008,0.0882,-0.0760,9.8117,-0.3115,0.4341,-0.0935,1.6818,-25.2328,-25.4972
7016,0.0854,-0.0729,9.8247,-0.3672,0.4088,-0.0748,1.6720,-25.1264,-25.4059
7024,0.0455,-0.0857,9.8055,-0.4231,0.4166,-0.0969,1.6647,-25.0229,-25.3058
7032,0.0677,-0.0904,9.8145,-0.5459,0.3921,0.0047,1.6573,-24.9200,-25.2062
7040,0.0113,-0.0769,9.8255,-0.5380,0.3153,0.0325,1.6523,-24.8222,-25.1139
7048,0.0021,-0.0729,9.8240,-0.3438,0.4578,-0.1116,1.6474,-24.7248,-25.0221
7056,0.0025,-0.0579,9.8189,-0.3447,0.2528,-0.2174,1.6424,-24.6280,-24.9307
7064,-0.0441,-0.0707,9.8067,-0.3456,0.0354,-0.2626,1.6413,-24.5293,-24.8450
7072,-0.0403,-0.0691,9.8302,-0.3518,0.0596,-0.3244,1.6417,-24.4380,-24.7567
7080,-0.0236,-0.0745,9.8305,-0.4217,0.0027,-0.1623,1.6420,-24.3471,-24.6657
7088,-0.0449,-0.0930,9.8071,-0.1953,-0.0411,-0.0445,1.6424,-24.2567,-24.5751
7096,-0.0564,-0.0998,9.7992,-0.3307,0.0877,-0.0252,1.6442,-24.1629,-24.4827
7104,-0.0091,-0.1068,9.8115,-0.2975,0.0696,0.0279,1.6317,-24.0710,-24.3975
7112,-0.0591,-0.1277,9.7767,-0.4392,0.0762,-0.0334,1.6215,-23.9811,-24.3089
7120,-0.0443,-0.1239,9.7776,-0.2946,0.1465,0.0921,1.6167,-23.8842,-24.2207
7128,-0.0276,-0.1291,9.7970,-0.1297,0.3498,0.0387,1.6118,-23.7877,-24.1329
7136,-0.0914,-0.1401,9.8019,-0.1187,0.5922,-0.0096,1.6084,-23.6925,-24.0588
7144,-0.1673,-0.1165,9.7990,0.0012,0.6000,-0.1412,1.6036,-23.5984,-23.9753
7152,-0.1613,-0.1410,9.7968,0.0625,0.4661,-0.2564,1.5936,-23.5093,-23.8885
7160,-0.1508,-0.0926,9.8044,0.0598,0.5194,-0.3692,1.5837,-23.4206,-23.8021
7168,-0.1797,-0.0912,9.8295,0.0119,0.7304,-0.4130,1.5738,-23.3323,-23.7160
7176,-0.2244,-0.0622,9.7953,0.0034,0.8521,-0.3857,1.5684,-23.2415,-23.6259
7184,-0.2093,-0.0705,9.8016,0.1073,0.6245,-0.4981,1.5630,-23.1511,-23.5362
7192,-0.2298,-0.1095,9.7632,0.0946,0.4762,-0.3390,1.5577,-23.0611,-23.4505
7200,-0.2539,-0.1320,9.7663,0.0745,0.3104,-0.2589,1.5523,-22.9716,-23.3652
7208,-0.2806,-0.1268,9.7558,-0.0434,0.1732,-0.0649,1.5470,-22.8825,-23.2802
7216,-0.2984,-0.1208,9.7591,-0.0415,0.1166,-0.0234,1.5366,-22.7953,-23.1920
7224,-0.2690,-0.1080,9.7689,-0.0503,0.2385,0.1869,1.5357,-22.7020,-23.1099
7232,-0.2529,-0.1375,9.7719,0.0186,0.5071,0.1828,1.5268,-22.6157,-23.0238
7240,-0.1791,-0.1186,9.7855,-0.1316,0.3293,0.2001,1.5181,-22.5297,-22.9381
7248,-0.2129,-0.1033,9.8315,-0.0751,0.2952,0.2913,1.5164,-22.4391,-22.8549
7256,-0.2363,-0.0859,9.8185,-0.1011,0.3747,0.3572,1.5106,-22.3554,-22.7742
7264,-0.2160,-0.0951,9.8272,-0.2620,0.4320,0.3056,1.5097,-22.2678,-22.6938
7272,-0.2450,-0.1103,9.8137,-0.2559,0.4841,0.4082,1.5109,-22.1828,-22.6159
7280,-0.2216,-0.1100,9.8115,-0.2820,0.5526,0.4050,1.5121,-22.0981,-22.5382
7288,-0.2464,-0.1279,9.7908,-0.2963,0.6235,0.5273,1.5062,-22.0082,-22.4623
7296,-0.2388,-0.1136,9.7767,-0.2700,0.4165,0.6683,1.5032,-21.9237,-22.3860
7304,-0.2551,-0.1361,9.7734,-0.2395,0.4080,0.9603,1.4974,-21.8346,-22.3093
7312,-0.2166,-0.1064,9.7915,-0.2370,0.4852,0.9810,1.4915,-21.7460,-22.2329
7320,-0.1494,-0.1251,9.8041,-0.1119,0.6496,0.9634,1.4858,-21.6578,-22.1568
7328,-0.1296,-0.0887,9.8060,-0.0777,0.5029,1.1093,1.4814,-21.5791,-22.0775
7336,-0.1035,-0.0604,9.7831,-0.0583,0.3679,1.0034,1.4771,-21.5007,-21.9986
7344,-0.0981,-0.0556,9.7674,-0.0530,0.4975,1.2142,1.4762,-21.4192,-21.9213
7352,-0.0978,-0.0282,9.7878,-0.0720,0.4135,1.3651,1.4753,-21.3380,-21.8444
7360,-0.0679,-0.0128,9.7895,-0.0742,0.3091,1.6134,1.4744,-21.2573,-21.7678
7368,-0.0235,-0.0281,9.7918,-0.0016,0.3879,1.7868,1.4763,-21.1776,-21.6908
7376,-0.0020,-0.0438,9.8017,-0.0201,0.4073,2.0753,1.4720,-21.0955,-21.6148
7384,0.0425,-0.0611,9.8070,-0.0699,0.0765,2.0446,1.4772,-21.0077,-21.5371
7392,0.0727,-0.0618,9.8715,0.1305,0.2055,2.1485,1.4824,-20.9202,-21.4596
7400,0.0814,-0.0729,9.8387,0.1302,0.3822,2.0665,1.4766,-20.8393,-21.3798
7408,0.1047,-0.0511,9.8624,-0.0515,0.5111,1.9721,1.4709,-20.7588,-21.3085
7416,0.0894,-0.0477,9.8455,-0.1239,0.5278,2.0365,1.4658,-20.6814,-21.2381
7424,0.0774,0.0050,9.8417,-0.1585,0.5491,1.9435,1.4628,-20.6009,-21.1680
7432,0.1066,0.0163,9.8568,0.0112,0.4627,1.9638,1.4598,-20.5208,-21.0981
7440,0.1221,0.0146,9.8473,0.0294,0.4469,2.0046,1.4588,-20.4383,-21.0265
7448,0.0627,0.0190,9.8255,0.1001,0.4050,1.9342,1.4557,-20.3610,-20.9512
7456,0.0305,0.0299,9.7862,-0.0109,0.2983,1.7310,1.4540,-20.2820,-20.8808
7464,0.0136,0.0046,9.7780,-0.0824,0.0843,1.7606,1.4523,-20.2033,-20.8108
7472,0.0393,-0.0096,9.7956,-0.2441,0.1089,1.5996,1.4506,-20.1250,-20.7410
7480,-0.0099,0.0217,9.8183,-0.4174,-0.0675,1.4670,1.4396,-20.0551,-20.6675
7488,0.0394,0.0109,9.8375,-0.2338,-0.1695,1.1775,1.4286,-19.9854,-20.5943
7496,0.0472,0.0111,9.8189,-0.1916,-0.0031,1.1993,1.4256,-19.9134,-20.5220
7504,0.0638,0.0413,9.8572,-0.2392,0.0627,1.2228,1.4226,-19.8417,-20.4500
7512,0.0678,0.0086,9.8281,-0.2473,0.1363,1.4800,1.4196,-19.7703,-20.3784
7520,0.0155,0.0063,9.7853,-0.2605,0.0867,1.4406,1.4134,-19.7005,-20.3070
7528,-0.0332,0.0721,9.7981,-0.3824,0.2180,1.2029,1.4117,-19.6298,-20.2372
7536,0.0069,0.0574,9.8129,-0.4537,0.3328,0.8397,1.4133,-19.5527,-20.1677
7544,-0.0059,0.0686,9.8358,-0.3458,0.2666,0.5323,1.4136,-19.4793,-20.0984
7552,0.0244,0.0137,9.8260,-0.1493,0.2299,0.3530,1.4139,-19.4063,-20.0269
7560,0.0039,0.0246,9.8372,-0.1534,0.2562,0.2402,1.4030,-19.3341,-19.9562
7568,-0.0013,0.0076,9.8478,-0.0827,0.2654,0.0230,1.3981,-19.2630,-19.8833
7576,-0.0289,0.0168,9.8137,-0.1991,0.0714,-0.3820,1.3971,-19.1935,-19.8223
7584,-0.0183,0.0100,9.8115,-0.2783,0.0327,-0.4866,1.3960,-19.1242,-19.7616
7592,0.0606,-0.0612,9.7794,-0.3168,0.0943,-0.5573,1.3911,-19.0495,-19.6939
7600,0.0399,-0.0441,9.7768,-0.2229,-0.0202,-0.6170,1.3862,-18.9751,-19.6266
7608,-0.0057,-0.0254,9.7781,-0.3145,0.1370,-0.6500,1.3780,-18.9087,-19.5659
7616,-0.0064,-0.0281,9.7643,-0.1940,0.0527,-0.4869,1.3700,-18.8426,-19.5055
7624,-0.0166,-0.0215,9.7791,-0.0495,0.0468,-0.4376,1.3619,-18.7768,-19.4453
7632,-0.0227,-0.0054,9.7765,-0.0393,0.0678,-0.3372,1.3526,-18.7036,-19.3763
7640,-0.0354,-0.0128,9.7924,-0.0803,0.1811,-0.3424,1.3434,-18.6307,-19.3076
7648,-0.0274,-0.0194,9.8359,-0.1647,0.2202,-0.4995,1.3418,-18.5594,-19.2392
7656,-0.0324,-0.0505,9.7997,-0.2348,0.2976,-0.5030,1.3402,-18.4884,-19.1711
7664,-0.0219,-0.0745,9.7907,-0.1739,0.1156,-0.4476,1.3386,-18.4178,-19.1033
7672,-0.0106,-0.0807,9.8066,-0.1129,0.1549,-0.5067,1.3326,-18.3461,-19.0414
7680,-0.0942,-0.0609,9.7877,-0.0493,-0.1062,-0.5046,1.3279,-18.2761,-18.9766
7688,-0.1216,-0.0269,9.7753,-0.1271,-0.0785,-0.3905,1.3238,-18.2070,-18.9146
7696,-0.1477,0.0088,9.7453,-0.0735,-0.1027,-0.2655,1.3191,-18.1362,-18.8521
7704,-0.1140,0.0479,9.8083,-0.1156,-0.2246,-0.1352,1.3144,-18.0659,-18.7900
7712,-0.0716,-0.0032,9.7971,-0.0679,-0.3704,-0.1626,1.3122,-17.9976,-18.7243
7720,-0.0173,-0.0623,9.8151,0.0285,-0.3818,0.0405,1.3113,-17.9335,-18.6601
7728,0.0387,-0.0897,9.7900,0.0272,-0.2835,-0.0346,1.3085,-17.8671,-18.5967
7736,0.0921,-0.1359,9.8197,0.0421,-0.4000,0.1122,1.3063,-17.8066,-18.5318
7744,0.0456,-0.1564,9.8251,-0.0371,-0.4662,0.1860,1.3041,-17.7464,-18.4671
7752,0.0054,-0.1184,9.8323,-0.0061,-0.3721,0.0858,1.3019,-17.6864,-18.4027
7760,-0.0815,-0.0722,9.8219,0.1622,-0.5008,0.1021,1.2979,-17.6235,-18.3416
7768,-0.0500,-0.0782,9.8039,0.0191,-0.5786,0.1949,1.2939,-17.5609,-18.2808
7776,-0.1084,-0.0800,9.8131,-0.0457,-0.6663,-0.0176,1.2898,-17.4986,-18.2202
7784,-0.2096,-0.0497,9.7818,-0.0197,-0.5688,-0.0262,1.2908,-17.4365,-18.1549
7792,-0.2151,-0.0451,9.7990,-0.1175,-0.4302,0.0163,1.2917,-17.3747,-18.0898
7800,-0.2291,-0.0282,9.8096,-0.1256,-0.3111,-0.1138,1.2870,-17.3168,-18.0244
7808,-0.2127,-0.0406,9.8128,-0.0988,-0.4211,-0.0888,1.2873,-17.2512,-17.9654
7816,-0.1946,-0.0906,9.7569,0.0762,-0.3423,0.0604,1.2876,-17.1859,-17.9066
7824,-0.1746,-0.1099,9.7619,0.0116,-0.1550,0.1684,1.2854,-17.1171,-17.8487
7832,-0.2248,-0.0791,9.7533,0.1044,0.0454,0.1491,1.2844,-17.0578,-17.7836
7840,-0.2589,-0.0890,9.7937,0.1106,-0.0482,0.2052,1.2755,-16.9933,-17.7182
7848,-0.2465,-0.0715,9.7993,0.0738,-0.0337,0.1575,1.2733,-16.9315,-17.6537
7856,-0.2712,-0.0430,9.8112,0.1586,0.0734,0.1546,1.2711,-16.8699,-17.5894
7864,-0.3040,0.0020,9.8525,0.0156,-0.1894,0.0825,1.2684,-16.8080,-17.5321
7872,-0.3360,0.0035,9.7901,0.0203,-0.2168,-0.1944,1.2662,-16.7421,-17.4695
7880,-0.3181,0.0017,9.7975,0.0141,-0.1683,-0.3339,1.2610,-16.6783,-17.4060
7888,-0.3364,0.0606,9.8205,-0.0691,-0.2899,-0.3713,1.2504,-16.6105,-17.3493
7896,-0.3312,0.0516,9.8035,0.0299,-0.2836,-0.6151,1.2398,-16.5430,-17.2929
7904,-0.3114,0.0711,9.8009,0.2580,-0.0535,-0.8802,1.2293,-16.4758,-17.2367
7912,-0.3140,0.0825,9.7630,0.1587,0.0412,-0.9950,1.2248,-16.4186,-17.1747
7920,-0.3410,0.0549,9.7870,-0.0002,0.2091,-0.8515,1.2204,-16.3615,-17.1129
7928,-0.3585,0.0346,9.8047,0.0211,0.1429,-0.9090,1.2165,-16.2975,-17.0537
7936,-0.3521,0.0148,9.8215,-0.1424,-0.0909,-0.9159,1.2127,-16.2338,-16.9948
7944,-0.3508,0.0060,9.8036,-0.1415,-0.0666,-0.6905,1.2089,-16.1703,-16.9362
7952,-0.3383,-0.0070,9.8142,-0.1833,0.0526,-0.6083,1.2033,-16.1094,-16.8783
7960,-0.2933,0.0054,9.8424,-0.0072,-0.0386,-0.4311,1.1930,-16.0477,-16.8207
7968,-0.2475,-0.0025,9.8616,0.0144,0.0901,-0.2402,1.1874,-15.9969,-16.7633
7976,-0.2420,0.0217,9.8549,0.0005,0.1198,-0.2257,1.1819,-15.9463,-16.7049
7984,-0.2262,0.0665,9.8369,0.0245,0.2602,-0.3639,1.1776,-15.8852,-16.6539
7992,-0.2132,0.0641,9.8594,0.0741,0.3039,-0.1866,1.1721,-15.8244,-16.5959
8000,-0.1327,0.0611,9.8624,0.2016,0.3909,-0.3558,1.1673,-15.7644,-16.5388
8008,-0.0790,0.0529,9.8737,0.1554,0.2475,-0.4376,1.1624,-15.7046,-16.4819
8016,-0.0877,-0.0037,9.8431,0.1780,0.3610,-0.5931,1.1558,-15.6510,-16.4311
8024,-0.0761,0.0270,9.8294,-0.0271,0.4376,-0.5072,1.1487,-15.5912,-16.3811
8032,-0.0756,0.0417,9.8503,-0.1779,0.4095,-0.6010,1.1380,-15.5321,-16.3259
8040,-0.0906,0.0736,9.8405,-0.0981,0.2999,-0.9841,1.1338,-15.4786,-16.2675
8048,-0.0673,0.0879,9.8458,-0.1738,0.3578,-1.1530,1.1297,-15.4254,-16.2092
8056,-0.0066,0.0931,9.8360,-0.2755,0.4372,-1.2933,1.1256,-15.3723,-16.1512
8064,-0.0204,0.0845,9.8230,-0.2687,0.7237,-1.5127,1.1121,-15.3124,-16.0958
8072,0.0113,0.0632,9.8208,-0.2490,0.7711,-1.7466,1.0987,-15.2527,-16.0406
8080,0.0668,0.0170,9.8211,-0.3980,0.8644,-1.7249,1.0935,-15.1974,-15.9902
8088,0.0419,-0.0157,9.7594,-0.3486,0.8549,-1.8694,1.0884,-15.1423,-15.9401
8096,0.0877,-0.0503,9.7893,-0.2720,0.9152,-1.7677,1.0833,-15.0875,-15.8901
8104,0.0421,-0.0789,9.7794,-0.3801,0.9249,-1.6064,1.0782,-15.0311,-15.8334
8112,0.0528,-0.0784,9.7558,-0.3261,1.2035,-1.5641,1.0691,-14.9772,-15.7774
8120,0.0693,-0.0788,9.7628,-0.5172,1.2085,-1.8064,1.0594,-14.9242,-15.7269
8128,0.0778,-0.1019,9.7326,-0.2545,1.0773,-1.6888,1.0498,-14.8713,-15.6765
8136,0.1134,-0.0996,9.7381,-0.4007,0.8932,-1.6242,1.0426,-14.8135,-15.6269
8144,0.1081,-0.0816,9.7536,-0.3458,0.7199,-1.5145,1.0296,-14.7651,-15.5718
8152,0.1385,-0.0539,9.7698,-0.2480,0.6901,-1.5857,1.0236,-14.7106,-15.5168
8160,0.1541,-0.0412,9.8055,-0.3465,0.6162,-1.5950,1.0159,-14.6557,-15.4615
8168,0.1382,-0.0906,9.7658,-0.2940,0.4656,-1.6706,1.0083,-14.6010,-15.4064
8176,0.1789,-0.1281,9.8251,-0.1877,0.3136,-1.6015,1.0024,-14.5506,-15.3549
8184,0.1466,-0.1493,9.8195,-0.2382,0.4723,-1.4582,0.9965,-14.5004,-15.3036
8192,0.1104,-0.1885,9.8309,-0.1397,0.7386,-1.1317,0.9936,-14.4486,-15.2514
8200,0.1228,-0.2003,9.8371,-0.0803,0.5613,-0.8836,0.9906,-14.3971,-15.1994
8208,0.1317,-0.1978,9.8440,0.0299,0.5091,-0.4996,0.9877,-14.3458,-15.1476
8216,0.1225,-0.1886,9.8212,-0.0354,0.6246,-0.0845,0.9836,-14.2946,-15.0960
8224,0.1041,-0.1412,9.7996,-0.0845,0.3216,0.3152,0.9796,-14.2437,-15.0445
8232,0.0661,-0.1047,9.7691,-0.2327,0.1625,0.7801,0.9699,-14.1946,-14.9904
8240,0.0508,-0.1085,9.7474,-0.3185,0.3411,1.2513,0.9602,-14.1458,-14.9366
8248,0.0247,-0.1210,9.7251,-0.1339,0.4852,1.3126,0.9569,-14.0949,-14.8834
8256,0.0316,-0.1037,9.7769,-0.0934,0.4417,1.4165,0.9507,-14.0470,-14.8305
8264,0.0701,-0.0890,9.7518,0.0361,0.4427,1.7265,0.9491,-13.9919,-14.7818
8272,0.0777,-0.0929,9.7700,-0.2108,0.5610,1.7350,0.9452,-13.9376,-14.7287
8280,0.1123,-0.0819,9.7824,-0.0522,0.6688,1.6338,0.9413,-13.8835,-14.6758
8288,0.0767,-0.0578,9.7982,-0.0846,0.6973,1.4810,0.9386,-13.8297,-14.6214
8296,0.0718,-0.0629,9.7647,0.0471,0.5165,1.3082,0.9331,-13.7732,-14.5718
8304,0.0910,-0.0479,9.7744,0.1704,0.4502,1.4123,0.9231,-13.7237,-14.5257
8312,0.0852,-0.0289,9.7737,0.1337,0.3816,1.3439,0.9176,-13.6722,-14.4719
8320,0.0504,0.0179,9.7689,0.3572,0.3186,1.0225,0.9122,-13.6209,-14.4183
8328,0.0338,0.0398,9.7482,0.4376,0.2423,0.9364,0.9051,-13.5731,-14.3671
8336,0.0776,0.0760,9.7964,0.4078,0.4841,0.7688,0.8981,-13.5256,-14.3162
8344,0.1237,0.0946,9.8118,0.3846,0.5366,0.3205,0.8939,-13.4742,-14.2722
8352,0.0669,0.0946,9.8321,0.4905,0.4375,-0.0309,0.8897,-13.4231,-14.2283
8360,0.1049,0.0786,9.8195,0.4558,0.3907,-0.2335,0.8855,-13.3722,-14.1846
8368,0.1205,0.0410,9.8172,0.5558,-0.0194,-0.4140,0.8875,-13.3232,-14.1393
8376,0.1365,0.0224,9.8187,0.5182,-0.0329,-0.5972,0.8895,-13.2744,-14.0943
8384,0.1127,0.0024,9.7878,0.5756,0.0716,-0.7538,0.8776,-13.2258,-14.0449
8392,0.1126,0.0139,9.8395,0.6011,0.1475,-0.7221,0.8657,-13.1773,-13.9957
8400,0.0929,-0.0044,9.8212,0.6282,-0.0466,-0.7986,0.8616,-13.1213,-13.9478
8408,0.0686,0.0301,9.8379,0.4274,0.2078,-0.9063,0.8531,-13.0716,-13.9001
8416,0.0978,-0.0176,9.7965,0.4301,-0.0370,-1.0600,0.8480,-13.0238,-13.8504
8424,0.1100,-0.0301,9.7973,0.3286,0.0490,-1.0897,0.8412,-12.9756,-13.8069
8432,0.0714,-0.0460,9.7911,0.3543,-0.0475,-0.9847,0.8345,-12.9276,-13.7636
8440,0.1071,-0.0541,9.7874,0.4241,-0.1530,-0.7376,0.8295,-12.8776,-13.7183
8448,0.1111,-0.0714,9.7700,0.5123,-0.0033,-0.5361,0.8234,-12.8295,-13.6747
8456,0.1745,-0.0264,9.7751,0.4766,0.0572,-0.4446,0.8195,-12.7821,-13.6236
8464,0.2085,-0.0163,9.7834,0.4504,0.1363,-0.3412,0.8146,-12.7372,-13.5804
8472,0.2234,0.0038,9.7672,0.5801,0.0894,-0.2343,0.8096,-12.6924,-13.5374
8480,0.2460,-0.0345,9.7567,0.6054,0.1085,-0.2014,0.8047,-12.6433,-13.4890
8488,0.2118,-0.0518,9.7717,0.4936,0.1534,0.1154,0.7998,-12.5945,-13.4407
8496,0.2136,-0.1176,9.7753,0.4054,0.0764,0.2877,0.7972,-12.5509,-13.3922
8504,0.2221,-0.1206,9.8096,0.4597,-0.0319,0.5484,0.7945,-12.5074,-13.3437
8512,0.2457,-0.1576,9.8046,0.3943,0.0298,0.7898,0.7919,-12.4641,-13.2955
8520,0.2175,-0.1450,9.7918,0.2917,0.0969,1.1006,0.7881,-12.4154,-13.2541
8528,0.2279,-0.1081,9.7822,0.2016,0.0783,1.1124,0.7844,-12.3670,-13.2127
8536,0.2459,-0.1275,9.7921,0.1582,0.0766,1.3078,0.7807,-12.3232,-13.1677
8544,0.2573,-0.1355,9.7987,0.1326,-0.1917,1.2972,0.7771,-12.2795,-13.1229
8552,0.2698,-0.1086,9.7834,0.1002,-0.2297,1.3645,0.7745,-12.2333,-13.0793
8560,0.2689,-0.0688,9.7986,0.0452,-0.1993,1.2741,0.7714,-12.1850,-13.0381
8568,0.2311,0.0050,9.7792,0.1045,-0.2956,1.3584,0.7667,-12.1397,-12.9943
8576,0.2334,0.0227,9.8235,0.1933,-0.2596,1.2257,0.7614,-12.0941,-12.9501
8584,0.2536,0.0054,9.8113,0.2302,-0.1612,1.1200,0.7562,-12.0486,-12.9060
8592,0.2501,0.0380,9.8430,0.3348,-0.1925,0.7657,0.7527,-12.0033,-12.8622
8600,0.2570,0.0429,9.8216,0.3629,-0.0171,0.4776,0.7464,-11.9636,-12.8185
8608,0.2550,0.0114,9.7959,0.4244,0.0094,0.2393,0.7418,-11.9148,-12.7782
8616,0.2545,-0.0281,9.7576,0.3605,0.0160,0.1875,0.7366,-11.8684,-12.7320
8624,0.2418,-0.0374,9.7730,0.3928,-0.0284,0.1567,0.7315,-11.8222,-12.6861
8632,0.1315,0.0066,9.7510,0.2849,0.0225,0.1165,0.7254,-11.7778,-12.6441
8640,0.1323,-0.0073,9.7625,0.2725,0.0099,0.1127,0.7192,-11.7336,-12.6022
8648,0.1599,-0.0245,9.7797,0.2020,-0.0235,0.0798,0.7158,-11.6934,-12.5578
8656,0.1143,-0.0419,9.7447,0.2331,-0.1675,-0.0744,0.7124,-11.6533,-12.5136
8664,0.1099,0.0116,9.7623,0.1936,-0.1265,-0.0778,0.7090,-11.6133,-12.4695
8672,0.1164,0.0714,9.7595,0.2385,-0.1833,-0.2838,0.7062,-11.5687,-12.4262
8680,0.1346,0.0855,9.7716,0.2335,-0.1416,-0.5207,0.7034,-11.5242,-12.3829
8688,0.1406,0.1055,9.7766,0.2499,-0.0723,-0.7792,0.7011,-11.4794,-12.3393
8696,0.1250,0.0976,9.7957,0.1644,0.0792,-1.0478,0.7005,-11.4375,-12.2986
8704,0.1005,0.0868,9.7929,0.1172,0.0800,-1.2220,0.6999,-11.3957,-12.2580
8712,0.1198,0.0297,9.8141,0.1121,0.0462,-1.2366,0.6955,-11.3508,-12.2143
8720,0.0780,0.0077,9.8218,0.1526,0.0486,-1.2852,0.6933,-11.3094,-12.1649
8728,0.0825,-0.0123,9.8252,0.0712,0.0428,-1.3530,0.6851,-11.2649,-12.1280
8736,0.0392,-0.0181,9.8210,0.0308,0.1226,-1.3405,0.6770,-11.2205,-12.0912
8744,0.0033,-0.0056,9.8327,0.0775,0.0923,-1.2752,0.6711,-11.1823,-12.0476
8752,-0.0420,0.0103,9.8255,0.0235,0.2366,-1.2421,0.6653,-11.1404,-12.0042
8760,-0.0238,-0.0276,9.8135,-0.0335,0.2279,-1.2025,0.6583,-11.0992,-11.9614
8768,0.0032,-0.0110,9.8159,-0.0214,0.3209,-1.2445,0.6514,-11.0582,-11.9188
8776,0.0148,0.0027,9.8189,0.0276,0.4099,-1.2235,0.6446,-11.0174,-11.8764
8784,0.0409,-0.0209,9.8299,-0.0776,0.4363,-1.1686,0.6393,-10.9714,-11.8394
8792,0.0485,-0.0140,9.8407,-0.0235,0.4989,-1.0602,0.6341,-10.9255,-11.8026
8800,0.0098,-0.0151,9.8546,-0.0385,0.5268,-1.0445,0.6321,-10.8814,-11.7675
8808,0.0245,-0.0147,9.8585,-0.0074,0.5375,-0.8562,0.6302,-10.8376,-11.7326
8816,-0.0110,-0.0111,9.8398,-0.0044,0.5583,-0.7187,0.6282,-10.7938,-11.6977
8824,-0.0002,0.0089,9.8674,0.0918,0.6289,-0.4433,0.6236,-10.7503,-11.6566
8832,-0.0284,0.0444,9.8615,0.1011,0.5044,-0.3613,0.6190,-10.7069,-11.6156
8840,-0.0105,0.0287,9.8351,0.2807,0.4174,-0.3175,0.6149,-10.6648,-11.5754
8848,-0.0677,0.0122,9.8477,0.2445,0.5848,-0.2623,0.6103,-10.6217,-11.5320
8856,-0.0507,-0.0192,9.8400,0.3298,0.4836,0.1398,0.6058,-10.5788,-11.4889
8864,-0.0667,-0.0206,9.8430,0.2941,0.3734,0.3671,0.6007,-10.5398,-11.4480
8872,-0.0584,-0.0493,9.8376,0.2652,0.3295,0.4670,0.5952,-10.4946,-11.4078
8880,-0.0414,-0.0652,9.8372,0.3123,0.4127,0.6212,0.5865,-10.4570,-11.3672
8888,-0.0646,-0.0377,9.8287,0.3014,0.4364,0.6194,0.5836,-10.4179,-11.3262
8896,-0.0834,0.0154,9.8077,0.4242,0.2990,0.6976,0.5807,-10.3790,-11.2854
8904,-0.0303,0.0015,9.8106,0.3790,0.3516,0.5831,0.5758,-10.3366,-11.2505
8912,-0.0633,0.0564,9.8165,0.3998,0.2845,0.4309,0.5735,-10.2958,-11.2115
8920,-0.0662,0.0418,9.8176,0.3717,0.2818,0.1974,0.5712,-10.2553,-11.1727
8928,-0.0904,0.0450,9.8465,0.4034,0.3085,0.0168,0.5647,-10.2149,-11.1340
8936,-0.1144,0.0511,9.8448,0.3672,0.2513,-0.1586,0.5583,-10.1773,-11.0970
8944,-0.0816,-0.0095,9.8569,0.3191,0.1620,-0.2144,0.5518,-10.1398,-11.0602
8952,-0.0323,-0.0624,9.8611,0.3159,0.2340,-0.1983,0.5491,-10.0988,-11.0229
8960,-0.0405,-0.0466,9.8421,0.3954,0.2014,-0.2363,0.5464,-10.0579,-10.9858
8968,0.0059,-0.0081,9.8691,0.3381,0.2796,-0.2433,0.5437,-10.0172,-10.9488
8976,-0.0041,0.0440,9.8607,0.2780,0.1464,-0.2500,0.5389,-9.9788,-10.9072
8984,0.0087,0.0693,9.8526,0.2926,0.1977,-0.4298,0.5325,-9.9421,-10.8737
8992,-0.0330,0.1136,9.8376,0.3038,0.1747,-0.6337,0.5278,-9.9055,-10.8387
9000,-0.0280,0.1205,9.8600,0.3065,0.2008,-0.9993,0.5241,-9.8674,-10.8027
9008,-0.0015,0.1034,9.8502,0.3012,0.3883,-1.1996,0.5205,-9.8296,-10.7669
9016,0.0074,0.0748,9.8500,0.3093,0.2477,-1.4018,0.5158,-9.7882,-10.7260
9024,0.0182,0.0648,9.8707,0.2772,0.3265,-1.6138,0.5106,-9.7543,-10.6920
9032,0.0626,0.0467,9.8781,0.2597,0.2126,-1.7339,0.5064,-9.7085,-10.6561
9040,0.1187,0.0112,9.8675,0.2884,0.3223,-1.9368,0.5023,-9.6733,-10.6161
9048,0.1194,-0.0233,9.8757,0.2731,0.2833,-1.8854,0.4982,-9.6383,-10.5763
9056,0.1245,-0.0243,9.8817,0.2186,0.2272,-1.8043,0.4941,-9.6024,-10.5407
9064,0.1224,-0.0431,9.8867,0.2117,0.2110,-1.7161,0.4869,-9.5672,-10.5069
9072,0.0384,-0.0200,9.8803,0.1838,0.1981,-1.7010,0.4798,-9.5321,-10.4731
9080,0.0198,-0.0018,9.8658,0.2398,0.2178,-1.7000,0.4747,-9.4977,-10.4364
9088,0.0176,0.0037,9.8641,0.1866,0.2766,-1.7896,0.4697,-9.4635,-10.3998
9096,0.0334,0.0306,9.8876,0.1492,0.2742,-1.7527,0.4647,-9.4294,-10.3633
9104,0.0289,0.0139,9.8624,0.0547,0.3092,-1.7441,0.4566,-9.3933,-10.3317
9112,0.0568,-0.0345,9.8469,0.0790,0.4760,-1.8931,0.4485,-9.3574,-10.3001
9120,0.0283,-0.0386,9.8297,0.1209,0.5022,-1.6917,0.4462,-9.3160,-10.2640
9128,-0.0098,-0.0683,9.8219,0.2383,0.3966,-1.6484,0.4438,-9.2747,-10.2280
9136,0.0067,-0.0678,9.8189,0.0839,0.3383,-1.4790,0.4363,-9.2372,-10.1921
9144,0.0044,-0.0615,9.8435,0.1416,0.2718,-1.3303,0.4330,-9.2035,-10.1522
9152,-0.0292,-0.0243,9.8330,0.1514,0.1950,-1.2201,0.4297,-9.1673,-10.1223
9160,-0.0832,-0.0066,9.8599,0.1075,0.3188,-1.1094,0.4264,-9.1313,-10.0925
9168,-0.1098,-0.0175,9.8442,0.0655,0.2905,-1.0516,0.4200,-9.0960,-10.0545
9176,-0.1311,-0.0369,9.8528,0.1133,0.3542,-1.2229,0.4111,-9.0593,-10.0193
9184,-0.1513,-0.0185,9.8756,0.1644,0.3484,-1.1201,0.4016,-9.0273,-9.9821
9192,-0.1318,-0.0355,9.8893,0.0825,0.2922,-1.1205,0.3985,-8.9929,-9.9450
9200,-0.1670,-0.0004,9.9100,0.1323,0.1611,-1.1395,0.3953,-8.9587,-9.9080
9208,-0.2079,0.0009,9.9341,0.0652,0.1530,-1.0563,0.3880,-8.9256,-9.8723
9216,-0.2436,0.0499,9.9045,0.1584,0.1134,-1.0728,0.3823,-8.8891,-9.8356
9224,-0.2713,0.1093,9.9201,0.1328,0.3207,-1.2086,0.3766,-8.8527,-9.7990
9232,-0.2832,0.0801,9.9069,0.2470,0.0924,-1.3384,0.3709,-8.8205,-9.7677
9240,-0.3004,0.0496,9.8931,0.2682,-0.0300,-1.5852,0.3652,-8.7886,-9.7366
9248,-0.2785,0.0088,9.9261,0.2912,-0.1363,-1.4639,0.3596,-8.7567,-9.7055
9256,-0.2774,-0.0478,9.9201,0.1691,-0.0886,-1.4439,0.3530,-8.7208,-9.6746
9264,-0.3087,0.0209,9.8107,0.2364,-0.1604,-1.2567,0.3464,-8.6851,-9.6437
9272,-0.2929,-0.0222,9.8316,0.3248,-0.2077,-1.1844,0.3377,-8.6491,-9.6089
9280,-0.2590,0.0745,9.8691,0.3293,0.0484,-1.4780,0.3291,-8.6131,-9.5741
9288,-0.3746,0.0500,9.7687,0.3229,-0.0667,-1.5614,0.3154,-8.5851,-9.5431
9296,-0.3561,0.0128,9.8145,0.2368,0.0739,-1.8331,0.3188,-8.5504,-9.5097
9304,-0.3536,0.0124,9.8017,0.1971,0.2270,-2.1969,0.3134,-8.5180,-9.4809
9312,-0.3736,0.0125,9.8034,0.1405,0.1574,-2.4995,0.3034,-8.4882,-9.4482
9320,-0.4176,0.0144,9.7894,0.0598,0.0909,-2.7675,0.2935,-8.4586,-9.4155
9328,-0.4539,0.0038,9.7472,0.2145,-0.0607,-3.1678,0.2863,-8.4230,-9.3856
9336,-0.3896,-0.0514,9.7800,0.1758,0.0849,-3.3186,0.2832,-8.3890,-9.3562
9344,-0.3880,-0.0972,9.7769,0.2375,-0.0024,-3.3322,0.2806,-8.3546,-9.3239
9352,-0.3728,-0.1682,9.7845,0.2164,-0.1340,-3.0971,0.2755,-8.3204,-9.2917
9360,-0.3422,-0.2138,9.7605,0.0257,-0.0518,-2.8083,0.2704,-8.2879,-9.2597
9368,-0.2936,-0.2054,9.7912,0.1339,-0.0745,-2.3882,0.2674,-8.2519,-9.2287
9376,-0.2178,-0.2315,9.7765,0.1441,-0.0536,-2.1064,0.2645,-8.2160,-9.1979
9384,-0.2593,-0.1773,9.7642,0.1218,-0.0309,-1.6343,0.2585,-8.1824,-9.1676
9392,-0.2232,-0.1578,9.7794,0.1565,-0.1425,-1.1215,0.2526,-8.1488,-9.1375
9400,-0.1722,-0.1420,9.8183,0.1683,-0.3906,-0.6525,0.2467,-8.1154,-9.1075
9408,-0.1530,-0.1272,9.8557,0.1183,-0.4811,-0.0707,0.2429,-8.0842,-9.0755
9416,-0.0732,-0.1221,9.8646,0.2092,-0.4531,0.2724,0.2391,-8.0531,-9.0437
9424,-0.0811,-0.1233,9.8675,0.1574,-0.4396,0.7391,0.2328,-8.0196,-9.0135
9432,-0.1020,-0.0657,9.8793,0.1719,-0.4560,1.2468,0.2266,-7.9862,-8.9833
9440,-0.1300,-0.0783,9.8390,0.2524,-0.5677,1.8016,0.2178,-7.9570,-8.9493
9448,-0.1357,-0.0659,9.8130,0.3000,-0.5119,2.2761,0.2122,-7.9259,-8.9199
9456,-0.1004,-0.0466,9.8281,0.2443,-0.3625,2.8659,0.2071,-7.8939,-8.8921
9464,-0.1249,0.0120,9.8400,0.2283,-0.5503,3.2619,0.2035,-7.8610,-8.8609
9472,-0.0888,0.0371,9.8103,0.1623,-0.5725,3.5312,0.2000,-7.8282,-8.8298
9480,-0.0747,0.0453,9.8344,0.0539,-0.6418,3.6288,0.1966,-7.7956,-8.8014
9488,-0.0128,0.0473,9.8662,0.0329,-0.5027,3.7114,0.1982,-7.7672,-8.7781
9496,0.0022,0.1046,9.8635,-0.0432,-0.5884,3.6971,0.1948,-7.7398,-8.7462
9504,0.0745,0.0558,9.8320,-0.0119,-0.5930,3.8274,0.1914,-7.7126,-8.7145
9512,0.1632,-0.0043,9.8453,0.0046,-0.6054,3.9787,0.1880,-7.6855,-8.6829
9520,0.2029,-0.0231,9.8711,0.0444,-0.4812,4.0006,0.1806,-7.6626,-8.6473
9528,0.1937,-0.0183,9.8548,0.1385,-0.4531,3.8270,0.1733,-7.6397,-8.6119
9536,0.2205,-0.0376,9.8473,0.2498,-0.5276,3.9063,0.1736,-7.6104,-8.5832
9544,0.2165,-0.0146,9.8414,0.2202,-0.5242,3.8221,0.1739,-7.5811,-8.5545
9552,0.1655,0.0186,9.8375,0.2506,-0.4223,3.7710,0.1742,-7.5520,-8.5260
9560,0.1262,0.0709,9.8376,0.3010,-0.3621,3.8634,0.1710,-7.5205,-8.4925
9568,0.1234,0.1069,9.8381,0.2559,-0.2513,3.6957,0.1679,-7.4890,-8.4591
9576,0.1245,0.1298,9.8609,0.3274,-0.1933,3.6474,0.1657,-7.4628,-8.4319
9584,0.1615,0.1452,9.8802,0.3691,-0.2098,3.4679,0.1636,-7.4367,-8.4048
9592,0.1545,0.1763,9.8826,0.2356,-0.3403,3.2909,0.1585,-7.4086,-8.3712
9600,0.1736,0.1544,9.8916,0.2227,-0.2784,3.2470,0.1544,-7.3806,-8.3413
9608,0.1449,0.1255,9.8956,0.2850,-0.1979,3.1756,0.1499,-7.3523,-8.3135
9616,0.1536,0.0870,9.8515,0.2245,-0.0942,2.9741,0.1469,-7.3226,-8.2833
9624,0.1559,0.0654,9.8930,0.2467,-0.1951,2.9014,0.1439,-7.2929,-8.2531
9632,0.0542,0.0459,9.8496,0.2200,-0.2248,2.7678,0.1395,-7.2599,-8.2266
9640,0.0528,-0.0064,9.8430,0.2184,-0.1467,2.8081,0.1366,-7.2320,-8.1977
9648,-0.0027,0.0515,9.8595,0.1155,-0.0746,2.6866,0.1337,-7.2027,-8.1679
9656,-0.0606,0.0934,9.8215,0.1025,0.0770,2.6611,0.1308,-7.1735,-8.1381
9664,-0.0880,0.1099,9.8408,0.1220,0.1367,2.5220,0.1280,-7.1444,-8.1085
9672,-0.0886,0.1089,9.8192,0.0154,0.1644,2.3277,0.1312,-7.1145,-8.0775
9680,-0.1165,0.1503,9.8060,0.1161,0.2416,2.1339,0.1344,-7.0846,-8.0465
9688,-0.1654,0.1396,9.8154,0.1777,0.1793,1.8579,0.1331,-7.0594,-8.0177
9696,-0.1013,0.0893,9.8404,0.1513,0.3038,1.9220,0.1318,-7.0343,-7.9890
9704,-0.0547,0.1030,9.9404,0.1260,0.5482,1.8713,0.1305,-7.0093,-7.9604
9712,-0.0512,0.0530,9.8692,0.1072,0.6673,1.8921,0.1283,-6.9869,-7.9343
9720,-0.1282,0.0483,9.8093,0.1319,0.9784,1.8027,0.1266,-6.9550,-7.9089
9728,-0.1049,0.0468,9.7606,0.0568,1.2120,1.6612,0.1218,-6.9263,-7.8791
9736,-0.1094,0.0937,9.8136,0.0517,1.3767,1.6059,0.1172,-6.8977,-7.8493
9744,-0.0880,0.0819,9.9084,-0.0626,1.2381,1.5876,0.1145,-6.8671,-7.8217
9752,-0.0585,0.0494,9.8043,-0.1185,1.0790,1.5782,0.1054,-6.8392,-7.7931
9760,-0.3658,-0.0542,9.5447,-0.0759,0.7402,1.8118,0.1018,-6.8124,-7.7661
9768,-0.2243,-0.0679,9.5927,0.0287,0.5975,1.8886,0.0982,-6.7832,-7.7433
9776,-0.2502,-0.0943,9.5268,0.1582,0.3944,1.9513,0.0947,-6.7542,-7.7205
9784,-0.2154,-0.0030,9.6111,0.2099,0.3868,2.0486,0.0927,-6.7287,-7.6903
9792,-0.1884,0.0655,9.7165,0.2755,0.5582,1.7337,0.0887,-6.7028,-7.6657
9800,-0.1913,0.0391,9.7131,0.2688,0.6982,1.3552,0.0847,-6.6745,-7.6377
9808,-0.2040,-0.0613,9.7687,0.2277,0.6693,1.0733,0.0808,-6.6463,-7.6097
9816,-0.2678,-0.1909,9.7831,-0.0196,0.5164,0.9930,0.0769,-6.6183,-7.5819
9824,-0.2791,-0.2412,9.7364,-0.0080,0.5142,0.9429,0.0730,-6.5968,-7.5542
9832,-0.2743,-0.2343,9.7725,0.0057,0.5227,1.1030,0.0691,-6.5754,-7.5265
9840,-0.2859,-0.2094,9.8521,-0.0692,0.4775,1.1654,0.0678,-6.5486,-7.5015
9848,-0.3816,-0.1982,9.6832,-0.0661,0.2717,1.1878,0.0664,-6.5219,-7.4765
9856,-0.3748,-0.1235,9.6888,-0.0339,0.1335,1.1051,0.0651,-6.4953,-7.4516
9864,-0.3777,-0.1014,9.8119,0.1036,0.0280,1.0315,0.0609,-6.4683,-7.4213
9872,-0.4187,-0.0554,9.7393,0.0244,0.0178,0.7877,0.0596,-6.4483,-7.3941
9880,-0.4630,0.0295,9.7255,0.1221,-0.0720,0.4586,0.0558,-6.4250,-7.3655
9888,-0.4357,0.0480,9.7353,0.1381,-0.0992,-0.0268,0.0521,-6.4018,-7.3370
9896,-0.4051,0.0847,9.7492,-0.0173,-0.0878,-0.3763,0.0529,-6.3741,-7.3106
9904,-0.3578,0.0620,9.7026,-0.2512,0.0164,-0.7345,0.0517,-6.3495,-7.2898
9912,-0.2544,0.0423,9.7360,-0.2108,0.0227,-1.1544,0.0470,-6.3176,-7.2655
9920,-0.2191,0.0259,9.8988,-0.2576,0.0767,-1.3826,0.0429,-6.2873,-7.2359
9928,-0.1613,-0.0227,10.0115,-0.1583,0.1444,-1.5341,0.0388,-6.2571,-7.2063
9936,-0.2451,-0.0521,9.8752,-0.0873,0.2597,-1.3724,0.0347,-6.2325,-7.1788
9944,-0.2622,-0.0003,9.8343,-0.0515,0.3194,-1.2444,0.0356,-6.2054,-7.1555
9952,-0.2823,0.0442,9.7937,-0.1719,0.3498,-1.3006,0.0310,-6.1815,-7.1316
9960,-0.3487,0.0736,9.8162,-0.1243,0.5468,-1.3998,0.0265,-6.1576,-7.1079
9968,-0.3755,0.0546,9.7318,-0.1722,0.4979,-1.3612,0.0220,-6.1339,-7.0843
9976,-0.4458,0.1031,9.7911,-0.1993,0.6085,-1.4897,0.0210,-6.1052,-7.0523
9984,-0.3459,0.1187,9.9564,-0.0973,0.5942,-1.6712,0.0200,-6.0767,-7.0204
9992,-0.3981,0.1510,9.9178,-0.0370,0.4793,-1.9888,0.0151,-6.0502,-6.9901
10000,-0.3555,0.1443,9.8743,-0.0593,0.3560,-2.1778,0.0101,-6.0239,-6.9599
10008,-0.3057,0.1473,9.8586,0.0979,0.1688,-2.6439,0.0052,-5.9976,-6.9298
10016,-0.2988,0.1017,9.8521,0.1630,0.0804,-2.8150,0.0038,-5.9749,-6.9082
10024,-0.2675,0.0150,9.8449,0.1879,-0.1188,-2.9812,0.0035,-5.9473,-6.8818
10032,-0.2388,0.0280,9.9276,0.2064,-0.0372,-2.8921,-0.0024,-5.9258,-6.8540
10040,-0.2802,0.0480,9.9196,0.1334,-0.1672,-2.8417,-0.0042,-5.9029,-6.8287
10048,-0.2967,0.0451,9.8986,0.2209,-0.0889,-2.9641,-0.0060,-5.8801,-6.8035
10056,-0.2155,0.0763,9.9357,0.2193,-0.0193,-2.9611,-0.0079,-5.8533,-6.7809
10064,-0.3634,-0.0076,9.9492,0.2630,-0.0328,-3.2516,-0.0136,-5.8242,-6.7569
10072,-0.3360,0.0244,9.8822,0.2782,0.0503,-3.2094,-0.0183,-5.7933,-6.7310
10080,-0.2885,0.0083,9.8730,0.3061,0.0338,-3.2571,-0.0226,-5.7669,-6.7051
10088,-0.1944,0.1003,9.8260,0.2954,-0.0780,-3.4813,-0.0267,-5.7406,-6.6804
10096,-0.1690,0.1089,9.8308,0.3065,0.0738,-3.7917,-0.0309,-5.7144,-6.6557
10104,-0.2093,0.1476,9.8079,0.2504,0.0775,-3.8539,-0.0321,-5.6893,-6.6282
10112,-0.1082,0.1180,9.8344,0.3408,-0.1562,-3.8014,-0.0333,-5.6643,-6.6007
10120,-0.0426,0.0825,9.8398,0.2246,-0.1743,-3.6898,-0.0344,-5.6393,-6.5734
10128,-0.0043,0.0372,9.8306,0.0495,-0.1170,-3.6551,-0.0425,-5.6135,-6.5491
10136,-0.0762,0.0331,9.8855,-0.0673,-0.1182,-3.3473,-0.0505,-5.5878,-6.5249
10144,-0.0005,0.0380,9.8523,-0.1443,0.0780,-3.3702,-0.0545,-5.5647,-6.4993
10152,-0.0755,0.1472,9.8651,-0.1567,0.0202,-3.6002,-0.0586,-5.5416,-6.4738
10160,-0.1338,0.1559,9.8216,-0.1951,0.0184,-3.9641,-0.0626,-5.5186,-6.4483
10168,-0.1624,0.1241,9.8136,-0.2426,0.0273,-4.1307,-0.0660,-5.4943,-6.4235
10176,-0.1159,0.0357,9.8237,-0.2693,0.1051,-4.0661,-0.0695,-5.4700,-6.4036
10184,-0.0965,0.0080,9.8561,-0.2548,0.1528,-3.8389,-0.0774,-5.4448,-6.3760
10192,-0.0954,-0.0480,9.8621,-0.2463,0.3452,-3.7097,-0.0788,-5.4212,-6.3499
10200,-0.0216,-0.1073,9.8681,-0.3022,0.4917,-3.5408,-0.0802,-5.3977,-6.3239
10208,-0.0171,-0.1127,9.8748,-0.1823,0.3706,-3.2833,-0.0841,-5.3767,-6.3073
10216,-0.0045,-0.0939,9.8395,-0.1903,0.2734,-3.1597,-0.0884,-5.3529,-6.2820
10224,0.0298,-0.1270,9.8412,-0.1553,0.2551,-2.9616,-0.0947,-5.3282,-6.2562
10232,0.0448,-0.1601,9.8437,-0.0951,0.2243,-2.5827,-0.0976,-5.3060,-6.2340
10240,0.0594,-0.1769,9.8400,-0.0616,0.2349,-2.0738,-0.1004,-5.2839,-6.2118
10248,0.0506,-0.1697,9.8539,0.0371,0.3169,-1.6538,-0.1031,-5.2619,-6.1898
10256,0.0473,-0.1537,9.8502,0.0089,0.5048,-1.3481,-0.1054,-5.2356,-6.1673
10264,-0.0026,-0.1328,9.8654,0.0245,0.5670,-1.0532,-0.1077,-5.2093,-6.1448
10272,0.0037,-0.1285,9.8510,0.0154,0.4719,-0.9045,-0.1119,-5.1885,-6.1200
10280,-0.0244,-0.1191,9.8649,-0.0145,0.3650,-0.6396,-0.1161,-5.1679,-6.0953
10288,-0.0570,-0.1125,9.8441,-0.0192,0.2307,-0.4023,-0.1203,-5.1473,-6.0707
10296,-0.0537,-0.0941,9.7803,-0.0077,0.1849,-0.1780,-0.1230,-5.1233,-6.0457
10304,-0.0631,-0.0621,9.7953,-0.0260,0.2105,-0.0196,-0.1232,-5.0985,-6.0232
10312,-0.0702,-0.0021,9.7994,-0.1048,0.1177,0.0172,-0.1234,-5.0737,-6.0007
10320,-0.0215,0.0303,9.8751,-0.2362,-0.0378,0.0471,-0.1270,-5.0476,-5.9809
10328,-0.0052,0.0583,9.8447,-0.1272,0.0296,-0.1189,-0.1306,-5.0264,-5.9620
10336,-0.0638,0.0290,9.8309,-0.2203,0.0406,-0.1817,-0.1381,-5.0108,-5.9373
10344,-0.0718,-0.0149,9.8612,-0.0880,-0.0635,-0.0871,-0.1446,-4.9868,-5.9142
10352,-0.0826,-0.0036,9.8932,-0.1321,0.0316,0.1820,-0.1511,-4.9630,-5.8912
10360,-0.1070,0.0231,9.8311,-0.1716,-0.0081,0.4127,-0.1536,-4.9412,-5.8619
10368,-0.1026,0.0722,9.8418,-0.1694,0.0153,0.4600,-0.1571,-4.9194,-5.8376
10376,-0.1150,0.0921,9.8806,-0.1460,-0.0530,0.5452,-0.1567,-4.8944,-5.8173
10384,-0.1067,0.0801,9.9108,-0.1316,-0.1237,0.4960,-0.1577,-4.8679,-5.7941
10392,-0.1183,0.0796,9.8907,-0.2885,-0.0659,0.2943,-0.1587,-4.8416,-5.7710
10400,-0.1734,0.1166,9.8720,-0.3478,-0.0960,0.1948,-0.1597,-4.8153,-5.7480
10408,-0.1942,0.0521,9.8028,-0.4339,0.0432,0.2382,-0.1582,-4.7940,-5.7276
10416,-0.1770,0.0165,9.7588,-0.3243,-0.0077,0.2505,-0.1568,-4.7728,-5.7072
10424,-0.1509,-0.0071,9.8010,-0.3020,0.1597,0.3288,-0.1607,-4.7473,-5.6815
10432,-0.1492,-0.0275,9.7991,-0.2062,0.3304,0.3851,-0.1646,-4.7219,-5.6559
10440,-0.1394,-0.1092,9.8297,-0.3064,0.3869,0.4603,-0.1685,-4.6966,-5.6304
10448,-0.1461,-0.0953,9.8210,-0.2584,0.4464,0.5295,-0.1616,-4.6738,-5.6108
10456,-0.1225,-0.1064,9.8294,-0.1084,0.4739,0.5156,-0.1650,-4.6506,-5.5860
10464,-0.1144,-0.1123,9.8285,-0.0743,0.2628,0.5424,-0.1669,-4.6240,-5.5642
10472,-0.1020,-0.0940,9.8258,-0.0630,0.2877,0.4293,-0.1688,-4.5976,-5.5424
10480,-0.1022,-0.0893,9.8406,-0.1109,0.1354,0.5026,-0.1693,-4.5737,-5.5173
10488,-0.0687,-0.0682,9.8609,-0.2393,0.1045,0.5726,-0.1697,-4.5528,-5.4972
10496,-0.0612,-0.0117,9.9011,-0.0635,0.1097,0.5782,-0.1716,-4.5330,-5.4747
10504,0.1156,0.1578,10.3147,0.1099,0.4959,0.4796,-0.1720,-4.5107,-5.4523
10512,0.0933,-0.0240,10.3240,0.1772,0.8732,0.3933,-0.1724,-4.4886,-5.4349
10520,0.0791,-0.0496,10.2478,0.1134,0.9727,0.3774,-0.1757,-4.4671,-5.4131
10528,0.0257,-0.0523,10.2289,0.3672,0.7585,0.6102,-0.1775,-4.4451,-5.3900
10536,-0.0126,-0.0998,10.2131,0.3965,0.7777,0.6248,-0.1779,-4.4232,-5.3713
10544,-0.0004,-0.0781,10.1911,0.2911,0.7880,0.6095,-0.1782,-4.4014,-5.3527
10552,-0.0339,-0.0740,10.1426,0.2784,0.7792,0.6002,-0.1786,-4.3797,-5.3342
10560,-0.0402,-0.0407,10.0826,0.2210,0.6988,0.5939,-0.1794,-4.3585,-5.3177
10568,-0.0344,-0.0091,10.0394,0.2646,0.4780,0.5586,-0.1803,-4.3374,-5.3012
10576,-0.0324,-0.0120,9.9879,0.1198,0.4614,0.6342,-0.1835,-4.3140,-5.2824
10584,-0.0301,-0.0552,9.9322,-0.0108,0.5096,0.6264,-0.1868,-4.2906,-5.2636
10592,-0.0795,-0.0678,9.9206,-0.0396,0.4996,0.7417,-0.1900,-4.2673,-5.2449
10600,-0.0914,-0.1248,9.9150,0.0155,0.4901,0.9746,-0.1849,-4.2441,-5.2180
10608,-0.0612,-0.0921,9.9164,0.0228,0.6251,0.9253,-0.1847,-4.2210,-5.1936
10616,-0.1067,-0.0775,9.8912,0.2085,0.5914,0.9555,-0.1826,-4.1960,-5.1722
10624,-0.0600,-0.0498,9.8862,0.0928,0.6072,0.9123,-0.1804,-4.1711,-5.1509
10632,-0.0615,-0.0497,9.8634,-0.0979,0.7423,0.9244,-0.1827,-4.1507,-5.1341
10640,-0.0569,-0.0341,9.8424,0.0477,0.7302,0.9013,-0.1849,-4.1255,-5.1173
10648,-0.0792,-0.0665,9.8087,0.2776,0.6893,0.9112,-0.1833,-4.1028,-5.0967
10656,-0.1676,0.0991,9.6530,-0.0465,0.5915,0.7260,-0.1879,-4.0816,-5.0762
10664,-0.0914,0.0732,9.7135,-0.1191,0.3380,0.7383,-0.1926,-4.0606,-5.0557
10672,-0.0908,0.0615,9.7459,-0.1192,0.2262,0.7660,-0.1899,-4.0420,-5.0319
10680,-0.0265,0.0127,9.7319,-0.1486,0.4207,0.9765,-0.1926,-4.0230,-5.0136
10688,0.0349,0.0046,9.7484,-0.0781,0.4253,1.0231,-0.1972,-4.0046,-4.9948
10696,-0.0389,0.0250,9.7087,-0.0507,0.1817,1.1530,-0.2018,-3.9862,-4.9761
10704,0.0091,-0.0012,9.7702,-0.1124,0.4101,1.3119,-0.2064,-3.9680,-4.9574
10712,0.0197,-0.0663,9.7412,-0.0701,0.3325,1.3252,-0.2095,-3.9449,-4.9389
10720,0.0020,-0.0975,9.7431,0.0369,0.3410,1.3059,-0.2125,-3.9219,-4.9203
10728,-0.0113,-0.0669,9.7481,0.0567,0.4718,1.2794,-0.2127,-3.9058,-4.9034
10736,-0.0192,-0.1281,9.7840,0.0782,0.4795,1.2888,-0.2128,-3.8897,-4.8864
10744,0.0779,-0.1634,9.7586,0.1468,0.5082,1.3004,-0.2130,-3.8737,-4.8696
10752,0.0306,-0.1653,9.7298,0.2124,0.4530,1.3302,-0.2185,-3.8520,-4.8474
10760,0.1093,-0.1333,9.7201,0.2245,0.5149,1.4760,-0.2162,-3.8259,-4.8263
10768,0.1505,-0.1198,9.7600,0.2600,0.4807,1.6635,-0.2182,-3.8010,-4.8068
10776,0.1627,-0.1254,9.8340,0.3874,0.5787,1.9494,-0.2203,-3.7761,-4.7873
10784,0.1560,-0.1158,9.8257,0.2584,0.5657,2.2308,-0.2209,-3.7484,-4.7678
10792,0.1331,-0.0475,9.8370,0.3538,0.6840,2.4252,-0.2244,-3.7267,-4.7490
10800,0.1592,-0.0386,9.8767,0.2744,0.6478,2.5578,-0.2264,-3.7045,-4.7297
10808,0.1866,-0.0091,9.8731,0.2144,0.6158,2.3806,-0.2255,-3.6806,-4.7100
10816,0.2131,0.0113,9.8570,0.1117,0.4439,2.2778,-0.2246,-3.6567,-4.6903
10824,0.2125,0.0242,9.8325,0.2402,0.4342,1.9289,-0.2247,-3.6330,-4.6717
10832,0.1701,-0.0092,9.8540,0.2644,0.3262,1.7792,-0.2247,-3.6093,-4.6532
10840,0.1641,-0.0408,9.8757,0.2528,0.1803,1.6707,-0.2238,-3.5867,-4.6347
10848,0.1791,-0.0548,9.8681,0.2978,0.1927,1.5083,-0.2229,-3.5642,-4.6163
10856,0.1836,-0.0674,9.8721,0.2155,0.1193,1.6783,-0.2220,-3.5419,-4.5980
10864,0.2059,-0.0466,9.9040,0.2274,-0.0282,1.6969,-0.2211,-3.5210,-4.5778
10872,0.1846,-0.0135,9.8704,0.1402,-0.0840,1.7707,-0.2202,-3.5003,-4.5576
10880,0.1899,0.0263,9.8901,0.2087,-0.0333,1.6332,-0.2222,-3.4767,-4.5380
10888,0.2025,0.0233,9.9175,0.2476,-0.0195,1.5151,-0.2242,-3.4533,-4.5185
10896,0.1911,0.0410,9.8922,0.3275,0.0497,1.4235,-0.2262,-3.4299,-4.4991
10904,0.1443,0.0151,9.8680,0.4278,0.0839,1.3839,-0.2282,-3.4052,-4.4855
10912,0.1334,-0.0015,9.8492,0.4785,0.2019,1.3194,-0.2272,-3.3835,-4.4633
10920,0.0717,-0.0379,9.8468,0.4469,0.1734,1.4337,-0.2253,-3.3590,-4.4474
10928,0.0782,-0.1173,9.8223,0.4674,0.1489,1.6390,-0.2234,-3.3345,-4.4316
10936,0.0189,-0.1031,9.8161,0.3750,0.1867,1.7980,-0.2215,-3.3088,-4.4124
10944,0.0049,-0.0806,9.8665,0.2759,0.1349,1.7447,-0.2215,-3.2817,-4.3948
10952,-0.0455,-0.0626,9.8474,0.3279,0.1440,1.7764,-0.2187,-3.2600,-4.3782
10960,-0.1058,-0.0153,9.8493,0.3082,0.1661,1.8467,-0.2207,-3.2409,-4.3578
10968,-0.0692,0.0029,9.8528,0.3348,0.2271,1.9032,-0.2226,-3.2218,-4.3375
10976,-0.0989,0.0212,9.8346,0.3815,0.2002,2.0053,-0.2202,-3.1975,-4.3182
10984,-0.1190,0.0846,9.8646,0.3195,0.2065,2.1136,-0.2178,-3.1733,-4.2990
10992,-0.1267,0.0341,9.8730,0.3642,0.2045,2.1478,-0.2198,-3.1594,-4.2870
11000,-0.1696,0.0007,9.8565,0.3243,0.2719,1.9326,-0.2218,-3.1456,-4.2752
11008,-0.1516,-0.0455,9.8616,0.2542,0.2137,2.0494,-0.2237,-3.1318,-4.2634
11016,-0.1721,-0.0800,9.8480,0.3577,0.2247,2.3691,-0.2242,-3.1099,-4.2448
11024,-0.1142,-0.1140,9.8539,0.3501,0.1285,2.8134,-0.2247,-3.0880,-4.2263
11032,-0.1278,-0.1019,9.8843,0.3322,0.0579,3.0330,-0.2218,-3.0687,-4.2113
11040,-0.1219,-0.1155,9.8613,0.2883,0.0091,3.3497,-0.2189,-3.0495,-4.1963
11048,-0.1512,-0.0545,9.8682,0.4037,0.2450,3.3726,-0.2165,-3.0222,-4.1775
11056,-0.1754,-0.0577,9.8499,0.3408,0.2467,3.3571,-0.2141,-2.9998,-4.1607
11064,-0.2224,-0.0573,9.7905,0.5046,0.2616,3.2462,-0.2146,-2.9756,-4.1401
11072,-0.2275,-0.0278,9.8078,0.5945,0.3398,3.3189,-0.2098,-2.9597,-4.1224
11080,-0.2112,-0.0308,9.8239,0.5765,0.2493,3.3298,-0.2050,-2.9438,-4.1049
11088,-0.1623,-0.0398,9.8371,0.6073,0.2534,3.4628,-0.1998,-2.9214,-4.0878
11096,-0.1714,-0.0493,9.8450,0.4448,0.2707,3.6647,-0.1974,-2.8985,-4.0704
11104,-0.1704,-0.0539,9.8357,0.6174,0.1752,3.8657,-0.1931,-2.8776,-4.0476
11112,-0.1336,-0.0712,9.8419,0.5664,0.3452,3.7860,-0.1913,-2.8603,-4.0323
11120,-0.1085,-0.0718,9.8101,0.6510,0.3451,3.8884,-0.1894,-2.8430,-4.0169
11128,-0.1299,-0.0241,9.8083,0.6332,0.2197,3.7917,-0.1866,-2.8258,-4.0026
11136,-0.1179,-0.0370,9.7801,0.6322,0.1318,3.8299,-0.1838,-2.8087,-3.9883
11144,-0.1458,0.0038,9.7825,0.6179,0.1997,3.8104,-0.1791,-2.7888,-3.9678
11152,-0.0935,0.0106,9.8069,0.6469,0.1953,3.5730,-0.1744,-2.7690,-3.9474
11160,-0.1169,0.0177,9.8541,0.7093,0.2525,3.5381,-0.1697,-2.7493,-3.9271
11168,-0.0806,0.0045,9.8116,0.6943,0.3791,3.4647,-0.1631,-2.7277,-3.9073
11176,-0.0805,-0.0161,9.7896,0.5146,0.5082,3.3492,-0.1565,-2.7062,-3.8875
11184,-0.1024,-0.0251,9.7801,0.4948,0.7223,3.3214,-0.1456,-2.6887,-3.8737
11192,-0.1285,-0.0179,9.7706,0.6145,0.5458,3.0148,-0.1429,-2.6660,-3.8531
11200,-0.1471,-0.0331,9.7784,0.5984,0.4036,2.5936,-0.1402,-2.6433,-3.8326
11208,-0.1062,-0.0961,9.7987,0.5589,0.4996,2.2868,-0.1385,-2.6208,-3.8140
11216,-0.1378,0.0290,9.7578,0.6358,0.4661,1.9855,-0.1359,-2.5974,-3.7922
11224,-0.1100,-0.0617,9.7696,0.7600,0.3167,1.9320,-0.1318,-2.5741,-3.7763
11232,-0.1318,-0.0719,9.7780,0.6868,0.4032,1.7875,-0.1292,-2.5606,-3.7628
11240,-0.1397,-0.0980,9.7514,0.6728,0.3606,1.5986,-0.1266,-2.5471,-3.7493
11248,-0.1713,-0.0797,9.7583,0.7101,0.5599,1.4927,-0.1264,-2.5289,-3.7311
11256,-0.2146,-0.0349,9.7472,0.6817,0.6037,1.2074,-0.1181,-2.5044,-3.7168
11264,-0.2260,0.0239,9.7199,0.7292,0.6190,0.9640,-0.1160,-2.4811,-3.7030
11272,-0.2485,0.0529,9.7257,0.6867,0.7349,0.7871,-0.1139,-2.4578,-3.6892
11280,-0.1820,0.0095,9.7464,0.6967,0.7792,0.4954,-0.1070,-2.4405,-3.6732
11288,-0.1695,0.0286,9.7812,0.5729,0.7894,0.3870,-0.1002,-2.4232,-3.6571
11296,-0.1570,0.0052,9.7779,0.6386,0.7672,0.3821,-0.0982,-2.4050,-3.6354
11304,-0.1884,-0.0050,9.7914,0.6293,0.8874,0.2814,-0.0962,-2.3869,-3.6137
11312,-0.1416,-0.0123,9.7986,0.6845,0.7169,0.2011,-0.0942,-2.3689,-3.5921
11320,-0.1449,0.0060,9.7427,0.5586,0.7139,0.2256,-0.0903,-2.3467,-3.5758
11328,-0.1356,0.0145,9.7568,0.5742,0.7297,-0.0016,-0.0864,-2.3245,-3.5596
11336,-0.1813,0.0376,9.7628,0.5304,0.8541,-0.1415,-0.0796,-2.3044,-3.5474
11344,-0.1503,-0.0162,9.7285,0.6699,0.7411,-0.2007,-0.0743,-2.2829,-3.5351
11352,-0.1017,-0.0727,9.7157,0.5553,0.6891,-0.0706,-0.0691,-2.2615,-3.5230
11360,-0.1029,-0.0599,9.7333,0.5657,0.6446,0.2032,-0.0643,-2.2406,-3.5079
11368,-0.1217,-0.0789,9.7287,0.4823,0.5301,0.2703,-0.0605,-2.2165,-3.4886
11376,-0.1282,-0.0183,9.7146,0.4079,0.6420,0.3904,-0.0562,-2.1930,-3.4742
11384,-0.1286,0.0121,9.7364,0.4728,0.6076,0.3933,-0.0539,-2.1691,-3.4608
11392,-0.1400,-0.0020,9.7406,0.3748,0.8013,0.5081,-0.0516,-2.1453,-3.4474
11400,-0.1092,0.0159,9.7362,0.3531,0.7920,0.6366,-0.0493,-2.1225,-3.4327
11408,-0.1192,0.0229,9.7255,0.3083,0.8924,0.6927,-0.0456,-2.0999,-3.4180
11416,-0.1305,-0.0126,9.7298,0.2816,0.8177,0.8824,-0.0395,-2.0764,-3.4047
11424,-0.0889,-0.0289,9.7729,0.1813,0.7783,0.9891,-0.0367,-2.0573,-3.3887
11432,-0.0921,-0.0198,9.7746,0.1174,0.6792,1.2619,-0.0340,-2.0383,-3.3727
11440,-0.1133,-0.0030,9.7802,-0.0184,0.6326,1.3653,-0.0313,-2.0194,-3.3568
11448,-0.0860,0.0481,9.8003,-0.1589,0.7079,1.5763,-0.0243,-1.9996,-3.3399
11456,-0.0782,0.0302,9.8026,-0.0693,0.6333,1.7087,-0.0173,-1.9799,-3.3231
11464,-0.0037,0.0222,9.7910,-0.1276,0.4980,1.7286,-0.0146,-1.9602,-3.3064
11472,0.0637,-0.0201,9.8050,-0.1833,0.4299,1.6943,-0.0120,-1.9402,-3.2917
11480,0.0141,-0.0561,9.7818,-0.0792,0.3194,1.7656,-0.0093,-1.9203,-3.2770
11488,0.0256,-0.0700,9.7562,-0.0918,0.4005,1.9030,-0.0067,-1.8966,-3.2599
11496,0.0734,-0.0676,9.7818,-0.0957,0.3206,2.0531,-0.0046,-1.8716,-3.2434
11504,0.0191,-0.0704,9.7534,-0.1048,0.3750,2.2286,-0.0025,-1.8466,-3.2270
11512,0.0320,-0.1221,9.7438,-0.0896,0.3229,2.4205,0.0025,-1.8233,-3.2149
11520,0.0332,-0.1215,9.7796,-0.0990,0.1718,2.7613,0.0037,-1.8020,-3.2009
11528,0.0242,-0.0622,9.7939,-0.1613,0.0966,3.0578,0.0106,-1.7774,-3.1870
11536,0.0193,-0.0519,9.8077,-0.0342,0.2674,3.0561,0.0194,-1.7558,-3.1761
11544,0.0795,-0.0890,9.8111,-0.1500,0.3401,3.1718,0.0281,-1.7343,-3.1651
11552,0.1531,-0.0779,9.7982,-0.0448,0.3349,3.3171,0.0368,-1.7105,-3.1499
11560,0.1319,-0.0392,9.8065,-0.0534,0.4739,3.5173,0.0441,-1.6844,-3.1324
11568,0.1458,-0.0533,9.8077,-0.0031,0.6122,3.5781,0.0489,-1.6608,-3.1182
11576,0.2177,-0.0142,9.8084,-0.0056,0.4031,3.5643,0.0556,-1.6393,-3.1061
11584,0.1907,-0.0253,9.8026,0.0187,0.2138,3.6551,0.0624,-1.6179,-3.0939
11592,0.1850,-0.0216,9.7937,0.0659,0.1608,3.5579,0.0690,-1.5966,-3.0819
11600,0.1707,-0.0638,9.8084,0.2257,0.1982,3.5796,0.0733,-1.5764,-3.0708
11608,0.1213,-0.0848,9.7971,0.1518,0.3085,3.6164,0.0775,-1.5562,-3.0597
11616,0.1341,-0.0937,9.7920,0.3239,0.3687,3.5342,0.0784,-1.5362,-3.0463
11624,0.0668,-0.0657,9.7932,0.3871,0.2716,3.3303,0.0793,-1.5163,-3.0330
11632,0.0377,-0.0710,9.7820,0.4635,0.0374,3.2367,0.0802,-1.4964,-3.0197
11640,0.0416,-0.0807,9.7700,0.5446,0.0214,2.9551,0.0834,-1.4757,-3.0054
11648,0.0664,-0.0850,9.7779,0.8088,-0.1698,2.8752,0.0910,-1.4537,-2.9913
11656,0.0506,-0.0707,9.7513,0.6641,-0.1420,2.7321,0.0975,-1.4279,-2.9771
11664,0.0213,-0.0914,9.7719,0.5951,0.0685,2.6460,0.1041,-1.4023,-2.9631
11672,0.0568,-0.0801,9.7942,0.6411,0.0272,2.5876,0.1135,-1.3801,-2.9495
11680,0.0779,-0.0954,9.7975,0.5944,0.0064,2.4624,0.1152,-1.3576,-2.9403
11688,0.0720,-0.0718,9.8096,0.5711,0.0771,2.2681,0.1222,-1.3319,-2.9278
11696,0.0365,-0.0715,9.8023,0.5862,0.1581,1.9995,0.1291,-1.3062,-2.9153
11704,-0.0064,-0.0161,9.7775,0.7472,0.1289,1.7428,0.1346,-1.2888,-2.9015
11712,-0.0640,-0.0315,9.7605,0.7466,0.2316,1.6225,0.1420,-1.2701,-2.8862
11720,-0.1143,-0.0168,9.7620,0.6553,0.1325,1.3502,0.1493,-1.2515,-2.8710
11728,-0.0960,-0.0563,9.7588,0.6880,0.0990,1.1805,0.1567,-1.2258,-2.8549
11736,-0.0585,-0.0715,9.7973,0.6019,0.1204,1.1195,0.1640,-1.2002,-2.8389
11744,-0.0592,-0.0803,9.7543,0.5836,0.1888,1.1119,0.1713,-1.1748,-2.8229
11752,-0.0093,-0.1357,9.7664,0.5848,0.2329,1.2673,0.1766,-1.1456,-2.8127
11760,-0.0160,-0.1170,9.7892,0.4552,0.2057,1.3358,0.1819,-1.1166,-2.8025
11768,-0.0504,-0.1000,9.7952,0.4780,0.2277,1.5241,0.1853,-1.0959,-2.7871
11776,-0.0874,-0.1075,9.7820,0.4811,0.1341,1.5867,0.1887,-1.0754,-2.7718
11784,-0.1077,-0.0860,9.7742,0.4788,0.2899,1.3800,0.1925,-1.0506,-2.7608
11792,-0.0804,-0.0971,9.7448,0.4899,0.2176,1.2117,0.1982,-1.0226,-2.7489
11800,-0.0235,-0.1025,9.7646,0.3645,0.1298,1.2480,0.1992,-0.9986,-2.7394
11808,0.0094,-0.0528,9.7593,0.4819,-0.1222,1.1494,0.1987,-0.9724,-2.7243
11816,0.0232,-0.0374,9.8074,0.4635,-0.2539,1.1271,0.1982,-0.9462,-2.7092
11824,0.1022,-0.0444,9.8445,0.4299,-0.2544,1.0658,0.2015,-0.9241,-2.6955
11832,0.0598,-0.0258,9.7783,0.5045,-0.1776,0.9912,0.2053,-0.8987,-2.6800
11840,0.0287,-0.0599,9.7758,0.5171,-0.0615,1.0879,0.2119,-0.8754,-2.6674
11848,0.0010,-0.0506,9.7918,0.4438,0.0709,1.2843,0.2137,-0.8536,-2.6515
11856,-0.0090,-0.0391,9.7748,0.5765,0.0135,1.6028,0.2156,-0.8319,-2.6357
11864,-0.0158,-0.0378,9.7881,0.5913,0.0759,1.7420,0.2208,-0.8085,-2.6195
11872,0.0223,-0.0206,9.8280,0.5681,0.1569,1.8031,0.2259,-0.7852,-2.6033
11880,0.0267,-0.0388,9.8203,0.5646,0.0557,1.6563,0.2315,-0.7586,-2.5885
11888,0.0129,-0.0202,9.8093,0.3853,-0.0570,1.5718,0.2371,-0.7322,-2.5739
11896,0.0350,-0.0558,9.7952,0.2991,-0.0822,1.6644,0.2427,-0.7060,-2.5593
11904,0.0486,-0.1093,9.7843,0.2994,-0.1436,1.7689,0.2444,-0.6765,-2.5461
11912,0.0760,-0.1018,9.7703,0.2677,-0.0796,1.9142,0.2461,-0.6472,-2.5330
11920,-0.0067,-0.0703,9.7986,0.1813,-0.2051,1.8958,0.2517,-0.6204,-2.5219
11928,-0.0388,-0.0820,9.7906,0.1307,-0.1838,1.8729,0.2572,-0.5938,-2.5108
11936,-0.0436,-0.0570,9.8320,0.0371,-0.1341,1.8137,0.2584,-0.5702,-2.4983
11944,-0.0917,-0.0052,9.8139,-0.1432,-0.2198,1.8530,0.2587,-0.5458,-2.4883
11952,-0.1025,-0.0454,9.8299,-0.1716,-0.1205,1.7680,0.2642,-0.5196,-2.4764
11960,-0.0439,-0.0526,9.8321,-0.0921,-0.1109,1.8360,0.2692,-0.4916,-2.4640
11968,-0.0578,-0.0568,9.8523,-0.0933,0.0503,1.8797,0.2741,-0.4638,-2.4517
11976,-0.0508,-0.0142,9.8245,-0.1906,0.0498,1.9668,0.2791,-0.4433,-2.4370
11984,-0.0659,-0.0088,9.8195,-0.1715,-0.0121,2.0261,0.2802,-0.4181,-2.4224
11992,-0.0869,-0.0004,9.8222,-0.1613,-0.0205,2.1255,0.2828,-0.3922,-2.4102
12000,-0.0229,-0.0319,9.8219,-0.0636,-0.0126,2.0979,0.2844,-0.3668,-2.3952
12008,-0.0161,-0.0576,9.7998,-0.0501,0.0696,2.0181,0.2860,-0.3416,-2.3802
12016,-0.0673,-0.0350,9.7966,-0.0852,0.0736,1.8192,0.2885,-0.3146,-2.3667
12024,-0.0544,-0.0441,9.8266,0.0118,-0.0879,1.7703,0.2910,-0.2877,-2.3533
12032,-0.0760,-0.0167,9.8268,0.0353,-0.1117,1.8275,0.2959,-0.2624,-2.3399
12040,-0.0536,-0.0522,9.8037,0.1218,-0.2998,1.5463,0.3008,-0.2373,-2.3266
12048,-0.0402,-0.0674,9.7975,0.1565,-0.2317,1.3973,0.3057,-0.2123,-2.3133
12056,-0.0076,-0.0438,9.7963,0.1310,-0.2412,1.3108,0.3124,-0.1884,-2.2990
12064,-0.0586,-0.0493,9.7767,0.1573,-0.3970,1.2015,0.3192,-0.1646,-2.2849
12072,-0.1003,-0.0028,9.8162,0.1398,-0.2980,1.1956,0.3230,-0.1366,-2.2679
12080,-0.1153,-0.0145,9.8211,0.0484,-0.1712,1.1767,0.3269,-0.1088,-2.2510
12088,-0.1142,-0.0128,9.8309,0.1876,-0.0101,1.0012,0.3297,-0.0811,-2.2351
12096,-0.1287,-0.0185,9.8430,0.0674,-0.0613,0.8601,0.3379,-0.0493,-2.2245
12104,-0.1970,-0.0132,9.8225,0.0992,-0.0729,0.7998,0.3412,-0.0263,-2.2096
12112,-0.2000,-0.0408,9.8263,0.1162,-0.0014,0.6435,0.3464,0.0018,-2.1986
12120,-0.2278,-0.0202,9.8584,0.2498,0.0564,0.4593,0.3516,0.0298,-2.1876
12128,-0.2675,-0.0252,9.8615,0.3109,-0.0218,0.4672,0.3520,0.0519,-2.1719
12136,-0.2242,-0.0124,9.8630,0.4040,0.0582,0.5068,0.3567,0.0776,-2.1534
12144,-0.2141,-0.0150,9.8451,0.5303,0.1907,0.5953,0.3628,0.1041,-2.1426
12152,-0.1868,-0.0114,9.8176,0.5392,0.2427,0.5466,0.3655,0.1315,-2.1285
12160,-0.1389,0.0123,9.8146,0.4543,0.4391,0.5933,0.3683,0.1587,-2.1145
12168,-0.1296,0.0115,9.8036,0.5011,0.4296,0.4194,0.3710,0.1833,-2.1005
12176,-0.0680,-0.0193,9.7427,0.5272,0.5058,0.1864,0.3737,0.2078,-2.0866
12184,-0.1129,-0.0381,9.7751,0.4882,0.3680,0.3475,0.3764,0.2297,-2.0703
12192,0.0114,-0.1179,9.7797,0.3602,0.4416,0.4563,0.3791,0.2515,-2.0542
12200,0.0614,-0.0986,9.7712,0.3791,0.3360,0.6830,0.3818,0.2732,-2.0380
12208,0.0666,-0.1181,9.7725,0.2506,0.2963,0.9398,0.3807,0.2971,-2.0277
12216,0.0991,-0.1662,9.7957,0.2636,0.2877,1.2280,0.3795,0.3209,-2.0174
12224,0.0734,-0.1742,9.7943,0.2921,0.0128,1.6396,0.3822,0.3521,-2.0062
12232,0.1062,-0.1723,9.7998,0.3167,-0.0207,2.0412,0.3849,0.3832,-1.9950
12240,0.1381,-0.1647,9.8354,0.1002,0.0299,2.3480,0.3914,0.4084,-1.9787
12248,0.1424,-0.1377,9.8712,0.0479,0.1129,2.4786,0.3978,0.4349,-1.9633
12256,0.0793,-0.1184,9.8772,0.1391,-0.0184,2.6382,0.4033,0.4612,-1.9504
12264,0.0505,-0.1145,9.8780,0.1464,-0.1252,2.7455,0.4069,0.4864,-1.9347
12272,0.0508,-0.1178,9.8888,0.0840,-0.1660,2.9201,0.4104,0.5114,-1.9190
12280,-0.0273,-0.0881,9.9032,0.0537,-0.2184,3.1643,0.4135,0.5382,-1.9073
12288,-0.0132,-0.0825,9.9303,0.0754,-0.1859,3.2886,0.4180,0.5639,-1.8946
12296,0.0028,-0.0885,9.9256,0.0108,-0.1281,3.3674,0.4277,0.5875,-1.8791
12304,0.0664,-0.1294,9.8968,-0.0537,-0.1128,3.4428,0.4359,0.6158,-1.8670
12312,0.0629,-0.1336,9.8963,-0.0860,-0.2902,3.4936,0.4441,0.6439,-1.8549
12320,0.0561,-0.1114,9.9081,0.0352,-0.2011,3.3901,0.4471,0.6761,-1.8401
12328,0.0741,-0.0527,9.8768,-0.0117,-0.2040,3.2112,0.4500,0.7081,-1.8252
12336,0.0699,-0.0746,9.8859,-0.1525,-0.2574,2.9654,0.4576,0.7376,-1.8138
12344,0.0520,-0.0795,9.8582,-0.2285,-0.2258,2.7597,0.4653,0.7669,-1.8025
12352,0.0668,-0.0643,9.8422,-0.2744,-0.1875,2.7070,0.4729,0.7960,-1.7911
12360,0.0337,-0.0474,9.8181,-0.1798,-0.1217,2.3740,0.4762,0.8230,-1.7770
12368,0.0538,-0.0371,9.8187,-0.0465,-0.0480,2.1302,0.4794,0.8499,-1.7629
12376,0.0684,-0.0259,9.8520,-0.1111,-0.0282,1.7877,0.4813,0.8795,-1.7484
12384,0.1116,-0.0354,9.8024,-0.0823,-0.0120,1.6415,0.4836,0.9022,-1.7301
12392,0.1685,-0.0668,9.8391,-0.0626,-0.0818,1.4697,0.4858,0.9248,-1.7119
12400,0.1777,-0.0874,9.7953,-0.1052,-0.0045,1.2414,0.4900,0.9539,-1.6976
12408,0.1504,-0.1243,9.7520,-0.1166,0.0400,1.0551,0.4942,0.9771,-1.6810
12416,0.1285,-0.0971,9.8231,-0.0688,-0.0800,0.9303,0.5021,1.0045,-1.6673
12424,0.0731,-0.1363,9.7612,-0.1458,-0.0668,0.7096,0.5101,1.0317,-1.6537
12432,0.0772,-0.1152,9.7704,-0.1554,0.0524,0.5492,0.5127,1.0602,-1.6387
12440,0.0777,-0.1098,9.7509,-0.0152,0.0838,0.2519,0.5201,1.0861,-1.6247
12448,0.0914,-0.1309,9.7619,0.0201,0.0258,0.0769,0.5241,1.1171,-1.6131
12456,0.1520,-0.1951,9.7637,-0.0207,-0.0536,-0.1012,0.5320,1.1446,-1.6011
12464,0.2037,-0.2017,9.7381,-0.1024,-0.1056,-0.3514,0.5398,1.1720,-1.5892
12472,0.2223,-0.2218,9.8027,0.0461,-0.1633,-0.5454,0.5447,1.1972,-1.5778
12480,0.2268,-0.1557,9.7783,-0.0279,-0.3678,-0.7629,0.5496,1.2224,-1.5665
12488,0.2800,-0.0923,9.8209,-0.0294,-0.4033,-0.9815,0.5578,1.2511,-1.5542
12496,0.2913,-0.1310,9.7770,0.0840,-0.2400,-1.0253,0.5660,1.2798,-1.5420
12504,0.3056,-0.1624,9.7396,0.0030,-0.1798,-1.0298,0.5741,1.3082,-1.5299
12512,0.3103,-0.1261,9.7312,-0.0851,-0.2663,-0.9967,0.5794,1.3422,-1.5168
12520,0.3060,-0.1288,9.7528,-0.0441,-0.2823,-1.0158,0.5846,1.3760,-1.5038
12528,0.2975,-0.0948,9.7641,-0.0688,-0.1323,-1.0474,0.5918,1.4062,-1.4895
12536,0.3171,-0.0900,9.8076,0.0436,0.0165,-1.0589,0.5965,1.4301,-1.4785
12544,0.3591,-0.0929,9.7905,-0.0303,0.1268,-0.9846,0.6012,1.4538,-1.4676
12552,0.3378,-0.1165,9.8051,-0.0129,0.1149,-0.9163,0.6063,1.4831,-1.4524
12560,0.3258,-0.1192,9.8602,-0.0870,0.0663,-0.8029,0.6138,1.5098,-1.4387
12568,0.3528,-0.1326,9.8262,-0.1872,0.0704,-0.7024,0.6237,1.5387,-1.4237
12576,0.3626,-0.1433,9.8287,-0.1336,-0.0003,-0.6170,0.6326,1.5660,-1.4087
12584,0.3168,-0.1412,9.7887,-0.1331,-0.0706,-0.5354,0.6414,1.5931,-1.3938
12592,0.3365,-0.1069,9.8244,-0.1139,-0.0365,-0.4520,0.6507,1.6158,-1.3784
12600,0.3492,-0.1238,9.8594,-0.2369,-0.0786,-0.4336,0.6556,1.6441,-1.3636
12608,0.4186,-0.1376,9.8592,-0.2559,-0.1481,-0.4773,0.6624,1.6750,-1.3498
12616,0.4340,-0.1205,9.8522,-0.2500,-0.1373,-0.5324,0.6673,1.6991,-1.3361
12624,0.4179,-0.0923,9.8559,-0.1537,-0.1750,-0.5478,0.6722,1.7230,-1.3229
12632,0.4069,-0.0823,9.8515,-0.1310,-0.0403,-0.6372,0.6771,1.7467,-1.3097
12640,0.3961,-0.0860,9.8220,-0.1012,-0.1275,-0.6293,0.6866,1.7742,-1.2999
12648,0.3554,-0.0656,9.8254,-0.0968,-0.0509,-0.6245,0.6962,1.8014,-1.2902
12656,0.3490,-0.0636,9.8198,-0.1138,-0.0470,-0.6252,0.7057,1.8285,-1.2805
12664,0.3278,-0.0640,9.8170,-0.1462,-0.0379,-0.5379,0.7128,1.8564,-1.2685
12672,0.3013,-0.0640,9.8195,-0.1344,0.0187,-0.4410,0.7198,1.8841,-1.2565
12680,0.2713,-0.0589,9.8172,-0.1658,0.0436,-0.4737,0.7235,1.9069,-1.2446
12688,0.2247,-0.0639,9.8229,-0.0759,-0.0793,-0.4357,0.7306,1.9333,-1.2327
12696,0.2075,-0.0579,9.8257,-0.0672,-0.0075,-0.4473,0.7375,1.9596,-1.2209
12704,0.1920,-0.0512,9.8114,-0.0563,0.0879,-0.4371,0.7421,1.9867,-1.2067
12712,0.1739,-0.0469,9.8058,-0.0031,0.0377,-0.4406,0.7514,2.0137,-1.1926
12720,0.1429,-0.0444,9.8043,-0.0349,0.0111,-0.4947,0.7535,2.0395,-1.1800
12728,0.1294,-0.0571,9.8048,0.0146,0.0069,-0.4798,0.7580,2.0675,-1.1708
12736,0.1058,-0.0577,9.8121,0.0273,-0.0530,-0.4308,0.7625,2.0954,-1.1616
12744,0.0913,-0.0460,9.8128,0.1248,0.0283,-0.3919,0.7665,2.1251,-1.1486
12752,0.0700,-0.0417,9.8120,0.1407,0.0634,-0.3868,0.7671,2.1507,-1.1380
12760,0.0530,-0.0388,9.8091,0.1986,0.0543,-0.3179,0.7687,2.1753,-1.1295
12768,0.0230,-0.0361,9.8037,0.2033,0.0670,-0.3373,0.7750,2.1959,-1.1176
12776,0.0072,-0.0351,9.7988,0.1571,0.1297,-0.1959,0.7813,2.2164,-1.1057
12784,0.0071,-0.0305,9.8003,0.1742,0.1417,-0.1994,0.7876,2.2367,-1.0939
12792,-0.0053,-0.0218,9.8021,0.1826,-0.0041,-0.0827,0.7919,2.2636,-1.0793
12800,-0.0083,-0.0362,9.7996,0.2467,0.0191,-0.1231,0.7962,2.2903,-1.0648
12808,-0.0183,-0.0306,9.8037,0.2039,-0.0281,-0.0577,0.7991,2.3126,-1.0522
12816,-0.0292,-0.0351,9.8043,0.1550,0.0362,-0.1445,0.8019,2.3347,-1.0397
12824,-0.0359,-0.0332,9.7966,0.1936,0.0229,-0.1529,0.8048,2.3567,-1.0272
12832,-0.0460,-0.0452,9.8015,0.1185,0.0503,-0.1128,0.8152,2.3781,-1.0176
12840,-0.0575,-0.0447,9.8014,0.1293,0.1618,-0.1333,0.8213,2.4037,-1.0076
12848,-0.0574,-0.0456,9.7898,0.1503,0.1484,-0.1181,0.8273,2.4291,-0.9976
12856,-0.0568,-0.0381,9.7872,0.0558,0.2182,-0.1703,0.8362,2.4534,-0.9891
12864,-0.0590,-0.0433,9.7816,0.0640,0.2344,-0.1268,0.8446,2.4785,-0.9792
12872,-0.0592,-0.0461,9.7728,0.0826,0.2818,-0.1466,0.8510,2.5040,-0.9684
12880,-0.0653,-0.0651,9.7700,0.0790,0.1938,-0.2482,0.8550,2.5293,-0.9614
12888,-0.0681,-0.0727,9.7756,0.0036,0.2777,-0.2440,0.8590,2.5545,-0.9545
12896,-0.0720,-0.0700,9.7907,0.0301,0.2326,-0.2107,0.8625,2.5791,-0.9423
12904,-0.0664,-0.0698,9.8016,-0.0458,0.3388,-0.1948,0.8707,2.6035,-0.9312
12912,-0.0586,-0.0564,9.7937,-0.0171,0.2430,-0.2010,0.8737,2.6283,-0.9220
12920,-0.0661,-0.0617,9.8016,-0.0564,0.3007,-0.2069,0.8761,2.6472,-0.9142
12928,-0.0752,-0.0559,9.8092,-0.0539,0.2599,-0.1725,0.8786,2.6660,-0.9065
12936,-0.0743,-0.0534,9.8092,-0.0888,0.3302,-0.2970,0.8810,2.6847,-0.8989
12944,-0.0685,-0.0439,9.8047,-0.0556,0.3521,-0.3387,0.8872,2.7018,-0.8860
12952,-0.0783,-0.0412,9.7970,-0.0185,0.3331,-0.4159,0.8934,2.7189,-0.8732
12960,-0.0798,-0.0370,9.7954,0.0037,0.3495,-0.3803,0.8995,2.7368,-0.8642
12968,-0.0703,-0.0399,9.7959,-0.0231,0.2852,-0.3864,0.9056,2.7545,-0.8553
12976,-0.0712,-0.0467,9.7963,-0.0514,0.3118,-0.4482,0.9117,2.7722,-0.8464
12984,-0.0694,-0.0488,9.7925,0.0015,0.3638,-0.3926,0.9158,2.7931,-0.8347
12992,-0.0663,-0.0538,9.7960,-0.0172,0.3736,-0.4087,0.9181,2.8100,-0.8230
13000,-0.0735,-0.0443,9.7909,0.0263,0.3296,-0.4135,0.9269,2.8307,-0.8138
13008,-0.0678,-0.0493,9.7900,0.0598,0.3249,-0.5115,0.9357,2.8512,-0.8046
13016,-0.0726,-0.0520,9.7768,0.1159,0.2190,-0.5278,0.9331,2.8741,-0.7973
13024,-0.0788,-0.0449,9.7872,0.1242,0.2618,-0.5727,0.9352,2.8967,-0.7834
13032,-0.0739,-0.0444,9.7934,0.0574,0.2680,-0.5890,0.9426,2.9183,-0.7748
13040,-0.0686,-0.0471,9.7904,0.0123,0.2927,-0.5992,0.9513,2.9370,-0.7643
13048,-0.0683,-0.0528,9.7954,0.0224,0.2975,-0.5664,0.9600,2.9555,-0.7539
13056,-0.0754,-0.0515,9.8109,0.0721,0.2515,-0.4256,0.9610,2.9768,-0.7430
13064,-0.0736,-0.0617,9.8140,0.0157,0.2076,-0.3150,0.9630,3.0013,-0.7326
13072,-0.0646,-0.0610,9.8218,-0.0357,0.1948,-0.3106,0.9683,3.0233,-0.7256
13080,-0.0784,-0.0517,9.8174,-0.0447,0.1667,-0.2343,0.9736,3.0451,-0.7187
13088,-0.0699,-0.0482,9.8135,-0.1601,0.1477,-0.2041,0.9788,3.0669,-0.7117
13096,-0.0705,-0.0460,9.8145,-0.1317,0.1243,-0.1432,0.9826,3.0809,-0.7039
13104,-0.0645,-0.0381,9.8195,-0.0779,0.1952,-0.1596,0.9864,3.0949,-0.6960
13112,-0.0724,-0.0282,9.8231,-0.0585,0.2123,-0.1380,0.9920,3.1121,-0.6863
13120,-0.0554,-0.0302,9.8186,-0.0426,0.1061,-0.0746,0.9976,3.1291,-0.6767
13128,-0.0596,-0.0311,9.8223,-0.0300,0.0924,-0.1020,1.0032,3.1461,-0.6670
13136,-0.0615,-0.0333,9.8234,0.0220,0.1434,-0.1282,1.0069,3.1659,-0.6584
13144,-0.0537,-0.0270,9.8134,0.0317,0.0615,-0.1053,1.0167,3.1831,-0.6460
13152,-0.0558,-0.0223,9.8140,0.0170,0.0232,-0.1687,1.0198,3.2022,-0.6365
13160,-0.0481,-0.0207,9.8168,0.0376,0.0185,-0.2080,1.0229,3.2211,-0.6270
13168,-0.0534,-0.0271,9.8120,0.0947,-0.0393,-0.2402,1.0255,3.2367,-0.6171
13176,-0.0619,-0.0356,9.8191,0.0265,-0.0679,-0.3911,1.0281,3.2573,-0.6072
13184,-0.0659,-0.0396,9.8204,-0.0146,-0.1779,-0.3193,1.0311,3.2736,-0.5979
13192,-0.0714,-0.0478,9.8203,0.0581,-0.2511,-0.4133,1.0361,3.2917,-0.5904
13200,-0.0695,-0.0479,9.8157,0.0929,-0.2971,-0.4766,1.0410,3.3097,-0.5830
13208,-0.0596,-0.0466,9.8169,0.1502,-0.3091,-0.4944,1.0458,3.3286,-0.5723
13216,-0.0606,-0.0487,9.8190,0.0450,-0.4219,-0.4262,1.0502,3.3492,-0.5607
13224,-0.0680,-0.0446,9.8267,0.0404,-0.3884,-0.4702,1.0574,3.3631,-0.5525
13232,-0.0673,-0.0501,9.8260,0.0573,-0.3191,-0.4963,1.0646,3.3769,-0.5443
13240,-0.0626,-0.0600,9.8304,0.0521,-0.3221,-0.4226,1.0717,3.3906,-0.5361
13248,-0.0611,-0.0467,9.8311,0.0419,-0.3304,-0.3335,1.0788,3.4081,-0.5265
13256,-0.0552,-0.0514,9.8336,0.0481,-0.3436,-0.2989,1.0859,3.4254,-0.5170
13264,-0.0534,-0.0467,9.8386,-0.0100,-0.3935,-0.2978,1.0915,3.4413,-0.5075
13272,-0.0569,-0.0287,9.8245,0.0011,-0.3640,-0.1982,1.0970,3.4570,-0.4980
13280,-0.0505,-0.0261,9.8231,0.0571,-0.2984,-0.2388,1.1026,3.4727,-0.4886
13288,-0.0492,-0.0246,9.8159,0.0840,-0.3423,-0.2137,1.1043,3.4887,-0.4787
13296,-0.0603,-0.0338,9.8198,0.0776,-0.4483,-0.2750,1.1089,3.5019,-0.4708
13304,-0.0518,-0.0443,9.8253,0.1036,-0.4404,-0.3097,1.1120,3.5211,-0.4639
13312,-0.0700,-0.0329,9.8329,0.0964,-0.3687,-0.3188,1.1151,3.5402,-0.4569
13320,-0.0673,-0.0349,9.8275,0.1829,-0.3589,-0.2396,1.1148,3.5568,-0.4500
13328,-0.0630,-0.0404,9.8230,0.1963,-0.2616,-0.2811,1.1217,3.5720,-0.4408
13336,-0.0592,-0.0367,9.8222,0.2117,-0.1764,-0.2435,1.1257,3.5927,-0.4344
13344,-0.0612,-0.0242,9.8219,0.2291,-0.1564,-0.2208,1.1311,3.6063,-0.4229
13352,-0.0657,-0.0338,9.8203,0.2085,-0.1399,-0.1885,1.1364,3.6197,-0.4113
13360,-0.0585,-0.0348,9.8129,0.2287,-0.0654,-0.2696,1.1403,3.6317,-0.4051
13368,-0.0578,-0.0325,9.8140,0.1734,-0.0742,-0.2805,1.1442,3.6436,-0.3989
13376,-0.0618,-0.0378,9.8054,0.2112,-0.0719,-0.1896,1.1443,3.6611,-0.3879
13384,-0.0571,-0.0361,9.8058,0.1700,-0.1178,-0.2680,1.1443,3.6785,-0.3770
13392,-0.0543,-0.0291,9.8061,0.1092,-0.0496,-0.2149,1.1444,3.6958,-0.3661
13400,-0.0581,-0.0288,9.8019,0.0911,0.0209,-0.2309,1.1482,3.7121,-0.3553
13408,-0.0561,-0.0380,9.7908,0.1538,0.0537,-0.1981,1.1521,3.7284,-0.3445
13416,-0.0612,-0.0345,9.7967,0.1258,0.0370,-0.1481,1.1559,3.7407,-0.3375
13424,-0.0643,-0.0464,9.7988,0.2190,0.0184,-0.0870,1.1596,3.7530,-0.3306
13432,-0.0649,-0.0452,9.7930,0.1588,0.1126,-0.0632,1.1634,3.7652,-0.3236
13440,-0.0705,-0.0479,9.7910,0.2319,0.0347,-0.0164,1.1676,3.7792,-0.3163
13448,-0.0769,-0.0535,9.7927,0.2137,-0.0104,-0.0304,1.1723,3.7974,-0.3080
13456,-0.0781,-0.0594,9.7848,0.1697,-0.0136,-0.0571,1.1769,3.8142,-0.2988
13464,-0.0733,-0.0616,9.7726,0.0663,0.0366,-0.0639,1.1816,3.8308,-0.2896
13472,-0.0689,-0.0737,9.7702,0.0368,-0.0993,0.0495,1.1838,3.8450,-0.2781
13480,-0.0832,-0.0736,9.7662,0.0672,-0.1173,0.0700,1.1879,3.8600,-0.2695
13488,-0.0861,-0.0717,9.7740,0.0563,-0.0624,0.0790,1.1925,3.8779,-0.2604
13496,-0.0824,-0.0646,9.7765,0.0379,-0.0634,0.0795,1.1951,3.8866,-0.2552
13504,-0.0908,-0.0608,9.7769,0.0016,0.0478,0.0294,1.1978,3.8953,-0.2500
13512,-0.0853,-0.0693,9.7886,0.0815,0.0154,-0.0959,1.2027,3.9110,-0.2429
13520,-0.0766,-0.0646,9.7847,0.0833,0.0137,-0.1651,1.2077,3.9267,-0.2358
13528,-0.0719,-0.0718,9.7812,0.0290,0.0308,-0.1859,1.2117,3.9399,-0.2241
13536,-0.0791,-0.0642,9.7898,-0.0096,0.1324,-0.2057,1.2157,3.9530,-0.2123
13544,-0.0769,-0.0586,9.7994,0.0122,0.1203,-0.1474,1.2196,3.9661,-0.2006
13552,-0.0677,-0.0609,9.8018,-0.0203,0.1461,-0.2117,1.2279,3.9796,-0.1927
13560,-0.0698,-0.0539,9.7993,-0.0167,0.0961,-0.1077,1.2360,3.9930,-0.1849
13568,-0.0726,-0.0407,9.7912,0.0080,0.0829,0.0130,1.2380,4.0087,-0.1771
13576,-0.0719,-0.0519,9.7889,0.0664,0.0889,0.1124,1.2428,4.0244,-0.1693
13584,-0.0695,-0.0558,9.7790,0.1462,0.0601,0.0421,1.2476,4.0395,-0.1578
13592,-0.0778,-0.0615,9.7906,0.1345,0.1978,0.0229,1.2500,4.0536,-0.1472
13600,-0.0776,-0.0621,9.7924,0.0699,0.1375,-0.0247,1.2481,4.0623,-0.1390
13608,-0.0810,-0.0422,9.7986,0.0296,-0.0162,0.0150,1.2490,4.0777,-0.1338
13616,-0.0659,-0.0392,9.7969,0.0176,-0.0031,0.0557,1.2500,4.0930,-0.1285
13624,-0.0659,-0.0329,9.7922,0.0622,-0.1106,0.0386,1.2519,4.1097,-0.1176
13632,-0.0718,-0.0381,9.7989,-0.0178,0.0105,0.0649,1.2566,4.1220,-0.1086
13640,-0.0745,-0.0478,9.7894,0.0097,0.0731,-0.0700,1.2546,4.1357,-0.0982
13648,-0.0613,-0.0447,9.7790,0.0413,0.0476,-0.1642,1.2584,4.1502,-0.0917
13656,-0.0558,-0.0483,9.7669,-0.0112,0.1032,-0.1637,1.2621,4.1647,-0.0851
13664,-0.0623,-0.0457,9.7623,-0.0053,0.0497,-0.2006,1.2644,4.1768,-0.0796
13672,-0.0576,-0.0364,9.7586,-0.0611,0.1479,-0.3212,1.2667,4.1887,-0.0740
13680,-0.0616,-0.0431,9.7580,-0.0317,0.0364,-0.2791,1.2689,4.2045,-0.0652
13688,-0.0565,-0.0355,9.7702,-0.0410,0.0365,-0.2443,1.2712,4.2201,-0.0564
13696,-0.0583,-0.0427,9.7676,0.0222,0.0233,-0.1202,1.2734,4.2357,-0.0476
13704,-0.0718,-0.0451,9.7789,0.0612,0.0079,-0.2577,1.2752,4.2479,-0.0417
13712,-0.0780,-0.0551,9.7836,-0.0028,0.0733,-0.1811,1.2769,4.2600,-0.0359
13720,-0.0842,-0.0682,9.7843,-0.0026,0.0744,-0.2198,1.2753,4.2721,-0.0286
13728,-0.0847,-0.0627,9.7835,-0.0025,0.1662,-0.1982,1.2766,4.2850,-0.0185
13736,-0.0811,-0.0701,9.7805,-0.0503,0.2379,-0.1962,1.2778,4.2979,-0.0084
13744,-0.0969,-0.0571,9.7906,-0.0321,0.1999,-0.1277,1.2842,4.3122,-0.0036
13752,-0.1013,-0.0491,9.7960,-0.0814,0.1928,-0.0941,1.2859,4.3254,0.0036
13760,-0.0974,-0.0473,9.7955,-0.1471,0.1621,-0.0860,1.2919,4.3353,0.0112
13768,-0.0981,-0.0470,9.7969,-0.1913,0.1620,-0.0542,1.3002,4.3465,0.0154
13776,-0.0864,-0.0413,9.8003,-0.2203,0.2099,-0.0185,1.3084,4.3577,0.0197
13784,-0.0917,-0.0516,9.7908,-0.1519,0.0771,0.0449,1.3119,4.3674,0.0282
13792,-0.0774,-0.0390,9.7825,-0.2306,0.0727,0.0336,1.3159,4.3828,0.0362
13800,-0.0891,-0.0236,9.7837,-0.2125,0.0072,0.0335,1.3203,4.3952,0.0446
13808,-0.0891,-0.0265,9.7894,-0.1498,0.0779,0.0200,1.3246,4.4076,0.0530
13816,-0.0883,-0.0273,9.7936,-0.0659,0.1029,-0.0729,1.3276,4.4156,0.0609
13824,-0.0930,-0.0257,9.7851,-0.0444,0.1374,-0.1590,1.3305,4.4236,0.0688
13832,-0.0808,-0.0320,9.7911,-0.0184,0.0691,-0.2494,1.3320,4.4363,0.0781
13840,-0.0817,-0.0286,9.7969,-0.0629,-0.0069,-0.2452,1.3334,4.4490,0.0874
