Timestamp_ms,AccX_Filt,AccY_Filt,AccZ_Filt,GyrX_Filt,GyrY_Filt,GyrZ_Filt,MagX_Filt,MagY_Filt,MagZ_Filt
5233,-0.1035,-0.0008,9.9195,0.1154,0.9904,-1.6647,-1.8900,-59.8050,-61.4250
5240,-0.0609,-0.0271,9.8841,0.3288,0.2014,0.2490,-1.9701,-62.3396,-64.0283
5248,-0.0627,-0.0926,9.8609,0.4206,-0.7143,-0.0263,-2.3771,-62.7882,-65.1214
5256,-0.0488,-0.0738,9.8355,0.9419,-0.7444,-0.2104,-2.5791,-63.1173,-65.5911
5264,-0.0363,-0.0604,9.8161,0.7873,-0.9104,-0.1116,-2.7553,-62.9867,-65.5996
5272,-0.0157,-0.0453,9.8090,0.5907,-0.9905,-0.2109,-2.5499,-63.0168,-65.4731
5280,-0.0146,-0.0189,9.8138,0.2890,-0.7890,-0.3804,-2.3989,-62.9504,-65.2907
5288,-0.0068,0.0047,9.8203,0.5110,-0.6214,-0.3583,-2.4489,-62.7313,-65.1109
5296,0.0039,0.0033,9.8125,0.5076,-0.6178,-0.2986,-2.4192,-62.3944,-64.9501
5304,-0.0031,-0.0105,9.8117,0.4856,-0.4603,-0.3085,-2.4525,-62.1830,-64.7883
5312,0.0002,-0.0145,9.8110,0.4793,-0.3130,-0.1687,-2.5047,-62.0502,-64.4507
5320,0.0113,-0.0256,9.8043,0.4850,-0.4755,-0.0734,-2.5463,-61.8900,-64.1177
5328,0.0059,-0.0330,9.7938,0.5105,-0.3462,-0.1621,-2.5797,-61.7092,-63.7888
5336,0.0126,-0.0295,9.8044,0.5518,-0.4383,-0.0689,-2.6068,-61.4488,-63.5167
5344,0.0174,-0.0214,9.8081,0.4684,-0.3027,-0.1162,-2.6288,-61.1845,-63.2408
5352,0.0132,-0.0123,9.8093,0.3292,-0.4153,-0.1098,-2.6466,-60.9454,-63.0089
5360,0.0251,-0.0126,9.8080,0.2768,-0.3351,-0.3179,-2.6611,-60.7011,-62.7696
5368,0.0212,-0.0032,9.7947,0.2501,-0.3841,-0.2261,-2.6727,-60.4528,-62.5246
5376,0.0135,-0.0049,9.8006,0.2454,-0.3701,0.0314,-2.6348,-60.1542,-62.2435
5384,0.0084,-0.0045,9.7997,0.1472,-0.3573,0.1068,-2.6294,-59.9474,-61.9844
5392,0.0053,0.0044,9.8017,0.2731,-0.4077,0.0769,-2.6236,-59.7343,-61.7230
5400,0.0067,0.0118,9.7936,0.3421,-0.2656,-0.0499,-2.5969,-59.4208,-61.3852
5408,0.0057,0.0097,9.7892,0.3743,-0.2390,0.0831,-2.5326,-59.1567,-61.1372
5416,0.0136,0.0086,9.7950,0.2346,-0.2144,0.1143,-2.5413,-58.8987,-60.8683
5424,0.0151,-0.0001,9.7937,0.2845,-0.2747,0.0966,-2.5485,-58.5625,-60.5992
5432,0.0096,0.0127,9.8013,0.3570,-0.2199,0.0477,-2.5544,-58.2320,-60.3301
5440,0.0147,0.0068,9.8045,0.3667,-0.2265,0.1751,-2.6033,-57.9291,-60.0945
5448,0.0175,0.0061,9.8060,0.3349,-0.1035,0.1678,-2.6157,-57.6243,-59.8353
5456,0.0232,0.0082,9.8142,0.2957,-0.1034,0.1237,-2.5852,-57.3437,-59.4934
5464,0.0266,0.0055,9.8221,0.2376,-0.1616,0.1407,-2.6258,-57.0651,-59.2070
5472,0.0218,0.0122,9.8219,0.3134,-0.2102,0.2263,-2.6630,-56.7885,-58.9226
5480,0.0125,0.0032,9.8190,0.2497,-0.1599,0.0820,-2.6972,-56.5138,-58.6401
5488,0.0119,0.0060,9.8145,0.2403,-0.2283,0.0441,-2.6786,-56.2319,-58.3868
5496,0.0053,0.0127,9.8009,0.2255,-0.3163,-0.0564,-2.6604,-55.9525,-58.1339
5504,0.0053,0.0128,9.8000,0.2319,-0.3527,-0.0346,-2.7068,-55.6882,-57.8727
5512,0.0159,0.0060,9.8010,0.2814,-0.4740,0.0382,-2.7500,-55.4255,-57.6125
5520,0.0062,0.0017,9.8051,0.3397,-0.5426,0.0179,-2.7902,-55.1643,-57.3534
5528,0.0011,-0.0172,9.8193,0.2607,-0.6419,0.0615,-2.7880,-54.9047,-57.0636
5536,-0.0076,-0.0070,9.8216,0.2369,-0.6821,0.0346,-2.7892,-54.6621,-56.7997
5544,-0.0049,-0.0014,9.8329,0.1974,-0.6496,0.1617,-2.7972,-54.3751,-56.5148
5552,0.0056,-0.0186,9.8362,0.1066,-0.5401,0.1755,-2.8042,-54.0911,-56.2323
5560,0.0088,-0.0279,9.8315,0.1406,-0.4752,0.1634,-2.7566,-53.8458,-55.9883
5568,0.0208,-0.0185,9.8318,0.0865,-0.4944,0.0906,-2.7561,-53.5807,-55.7064
5576,0.0148,-0.0154,9.8302,0.1073,-0.5210,0.1269,-2.7483,-53.3348,-55.4511
5584,0.0012,-0.0172,9.8274,0.0302,-0.4245,0.1476,-2.7302,-53.0902,-55.2140
5592,0.0048,-0.0079,9.8281,0.0479,-0.4486,0.2169,-2.7125,-52.8469,-54.9775
5600,0.0117,-0.0109,9.8209,-0.0095,-0.4769,0.1290,-2.6950,-52.5793,-54.7129
5608,0.0225,-0.0099,9.8268,-0.0066,-0.4765,0.0808,-2.6777,-52.3140,-54.4503
5616,0.0236,-0.0113,9.8321,-0.0722,-0.5391,0.0213,-2.6514,-52.0787,-54.2143
5624,0.0142,-0.0130,9.8163,-0.0938,-0.5659,0.0328,-2.6258,-51.8446,-53.9791
5632,0.0061,0.0036,9.8085,-0.1090,-0.5207,-0.0243,-2.6007,-51.6117,-53.7450
5640,0.0119,0.0014,9.8064,-0.1316,-0.4232,0.0055,-2.5645,-51.4061,-53.5001
5648,0.0109,0.0044,9.8077,-0.1016,-0.4985,0.1506,-2.5293,-51.2006,-53.2568
5656,0.0085,0.0048,9.8039,-0.0783,-0.5269,0.1183,-2.5397,-50.9702,-53.0120
5664,0.0133,-0.0026,9.8081,-0.0481,-0.5757,0.1200,-2.5494,-50.7411,-52.7687
5672,0.0048,0.0008,9.8047,-0.1192,-0.5331,0.1000,-2.5233,-50.5185,-52.5189
5680,-0.0015,0.0034,9.8098,-0.1169,-0.4870,0.0863,-2.4897,-50.3103,-52.2628
5688,0.0024,0.0253,9.8044,-0.1416,-0.5078,0.0462,-2.4596,-50.0922,-52.0323
5696,0.0022,0.0155,9.7991,-0.0898,-0.5357,0.0565,-2.4224,-49.8725,-51.8235
5704,-0.0038,0.0140,9.8015,-0.1157,-0.6188,-0.0522,-2.3861,-49.6538,-51.6151
5712,-0.0048,0.0185,9.8056,-0.1082,-0.5987,-0.0564,-2.3804,-49.4363,-51.4023
5720,-0.0083,0.0171,9.8129,-0.0607,-0.5580,-0.0471,-2.3673,-49.2124,-51.2072
5728,0.0025,0.0113,9.8026,-0.0449,-0.6319,-0.0569,-2.3471,-48.9995,-50.9931
5736,-0.0017,0.0093,9.7911,-0.0619,-0.5630,0.0840,-2.3675,-48.7805,-50.7726
5744,-0.0033,-0.0003,9.7906,-0.0514,-0.5427,0.1194,-2.3869,-48.5627,-50.5531
5752,-0.0084,-0.0086,9.8007,-0.0896,-0.5743,0.0915,-2.3802,-48.3324,-50.3370
5760,-0.0107,-0.0179,9.8112,-0.0645,-0.4999,0.0970,-2.3734,-48.1036,-50.1218
5768,-0.0014,-0.0199,9.8139,-0.0727,-0.5521,0.0541,-2.3576,-47.8966,-49.9053
5776,-0.0021,-0.0235,9.8067,-0.0751,-0.4386,0.1282,-2.3420,-47.6905,-49.6899
5784,-0.0055,-0.0150,9.8171,-0.0426,-0.3703,0.1723,-2.3265,-47.4855,-49.4756
5792,-0.0044,-0.0168,9.8101,-0.0437,-0.4121,0.1261,-2.3005,-47.2879,-49.2580
5800,-0.0035,-0.0171,9.8074,-0.0019,-0.4894,0.0204,-2.2750,-47.0911,-49.0415
5808,0.0051,-0.0206,9.8063,-0.0743,-0.4136,-0.0084,-2.2561,-46.8722,-48.8158
5816,0.0079,-0.0196,9.8017,-0.0980,-0.4427,0.0442,-2.2376,-46.6548,-48.5916
5824,0.0141,-0.0164,9.7975,-0.1662,-0.4331,0.1267,-2.2314,-46.4571,-48.3606
5832,-0.0018,-0.0054,9.7983,-0.1645,-0.2904,0.0211,-2.2152,-46.2463,-48.1312
5840,0.0003,-0.0095,9.8068,-0.1629,-0.3543,0.0697,-2.1972,-46.0645,-47.9312
5848,-0.0074,-0.0000,9.8098,-0.1534,-0.3646,0.1376,-2.1912,-45.8696,-47.7184
5856,-0.0080,0.0054,9.8135,-0.1709,-0.3210,0.1198,-2.1851,-45.6756,-47.5068
5864,-0.0049,0.0043,9.8133,-0.2225,-0.3969,0.3190,-2.1771,-45.4864,-47.2849
5872,-0.0034,-0.0039,9.8148,-0.1756,-0.3092,0.3439,-2.1785,-45.2830,-47.0739
5880,0.0061,-0.0018,9.8126,-0.1949,-0.2201,0.4158,-2.1553,-45.0751,-46.8792
5888,-0.0008,-0.0044,9.8115,-0.2640,-0.2096,0.3938,-2.1326,-44.8685,-46.6853
5896,0.0167,-0.0068,9.8114,-0.2768,-0.2262,0.4661,-2.1101,-44.6633,-46.4923
5904,0.0106,-0.0058,9.8076,-0.2142,-0.1541,0.4419,-2.1151,-44.4738,-46.3073
5912,0.0074,-0.0026,9.8152,-0.1837,-0.1278,0.3520,-2.1198,-44.2853,-46.1231
5920,0.0113,-0.0015,9.8047,-0.1733,-0.2040,0.4528,-2.1030,-44.0836,-45.9149
5928,0.0076,-0.0091,9.8094,-0.1659,-0.1836,0.3785,-2.0864,-43.8832,-45.7080
5936,0.0138,-0.0093,9.8054,-0.2016,-0.2441,0.4781,-2.0700,-43.6840,-45.5024
5944,0.0098,-0.0098,9.8040,-0.2304,-0.2725,0.4801,-2.0572,-43.4998,-45.3100
5952,0.0176,-0.0085,9.7969,-0.2046,-0.2304,0.4686,-2.0462,-43.3182,-45.1202
5960,0.0165,-0.0078,9.7964,-0.1025,-0.2114,0.3962,-2.0420,-43.1307,-44.9214
5968,0.0195,-0.0107,9.7991,-0.0503,-0.2707,0.3910,-2.0377,-42.9444,-44.7237
5976,0.0091,-0.0075,9.8029,0.0103,-0.3460,0.2954,-2.0350,-42.7656,-44.5223
5984,0.0206,-0.0187,9.8068,-0.0117,-0.3567,0.3320,-2.0241,-42.5763,-44.3172
5992,0.0210,-0.0134,9.8094,-0.0435,-0.3189,0.3670,-2.0277,-42.3849,-44.1231
6000,0.0295,-0.0113,9.8045,-0.0365,-0.3254,0.3177,-2.0247,-42.2059,-43.9206
6008,0.0236,0.0011,9.8074,-0.0058,-0.3370,0.2253,-2.0217,-42.0278,-43.7194
6016,0.0205,0.0064,9.7977,-0.0858,-0.2654,0.2250,-2.0138,-41.8678,-43.5366
6024,0.0136,0.0135,9.7980,-0.1090,-0.3996,0.2833,-2.0014,-41.6975,-43.3440
6032,0.0101,0.0135,9.7923,-0.0298,-0.3919,0.3071,-1.9936,-41.5004,-43.1601
6040,0.0001,0.0007,9.8036,-0.0048,-0.3046,0.3218,-1.9859,-41.3047,-42.9773
6048,-0.0148,0.0061,9.7965,-0.0315,-0.3171,0.3386,-1.9782,-41.1103,-42.7954
6056,-0.0029,0.0059,9.7969,0.0043,-0.2970,0.3493,-1.9750,-40.9307,-42.6056
6064,-0.0030,0.0062,9.7891,-0.0388,-0.3631,0.2128,-1.9717,-40.7521,-42.4169
6072,-0.0026,0.0142,9.7893,-0.0481,-0.3571,0.1730,-1.9757,-40.5657,-42.2425
6080,-0.0000,0.0123,9.7895,-0.0569,-0.2899,0.1989,-1.9794,-40.3805,-42.0689
6088,0.0014,0.0183,9.7888,-0.0680,-0.3830,0.2744,-1.9830,-40.1965,-41.8963
6096,0.0005,0.0256,9.7781,-0.0973,-0.3681,0.2479,-1.9822,-40.0265,-41.7202
6104,0.0087,0.0277,9.7757,-0.1226,-0.2951,0.2759,-1.9755,-39.8559,-41.5465
6112,0.0139,0.0309,9.7717,-0.1175,-0.2547,0.1480,-1.9633,-39.6850,-41.3680
6120,0.0072,0.0256,9.7795,-0.1420,-0.2293,0.0817,-1.9665,-39.5149,-41.1906
6128,0.0052,0.0267,9.7866,-0.1494,-0.2531,0.0129,-1.9695,-39.3473,-41.0294
6136,0.0143,0.0173,9.7820,-0.1671,-0.2732,0.0245,-1.9573,-39.1818,-40.8510
6144,0.0076,0.0201,9.7888,-0.1094,-0.2950,0.0010,-1.9533,-39.0092,-40.6846
6152,-0.0008,0.0145,9.7950,-0.1689,-0.2599,0.0824,-1.9372,-38.8510,-40.5069
6160,-0.0048,0.0167,9.7914,-0.2177,-0.2984,0.0963,-1.9212,-38.6936,-40.3302
6168,-0.0024,0.0123,9.7946,-0.2058,-0.3698,0.1443,-1.9027,-38.5357,-40.1585
6176,0.0093,0.0138,9.7879,-0.1677,-0.3181,0.2035,-1.8845,-38.3785,-39.9878
6184,-0.0002,0.0110,9.7878,-0.1847,-0.2447,0.2787,-1.8769,-38.2183,-39.8115
6192,-0.0083,0.0104,9.7886,-0.2142,-0.2891,0.2627,-1.8693,-38.0589,-39.6362
6200,-0.0061,0.0143,9.7911,-0.2504,-0.2142,0.1754,-1.8618,-37.9003,-39.4619
6208,0.0032,0.0083,9.7948,-0.1944,-0.2280,0.2439,-1.8569,-37.7426,-39.2887
6216,0.0076,0.0125,9.7949,-0.2448,-0.2678,0.2267,-1.8519,-37.5857,-39.1165
6224,0.0097,0.0276,9.7955,-0.2210,-0.2713,0.1676,-1.8406,-37.4460,-38.9453
6232,0.0138,0.0213,9.8069,-0.1796,-0.1812,0.1645,-1.8407,-37.2932,-38.7926
6240,0.0062,0.0164,9.8073,-0.1560,-0.0684,0.2014,-1.8407,-37.1411,-38.6407
6248,0.0007,0.0116,9.8108,-0.2001,-0.0192,0.2821,-1.8332,-36.9812,-38.4783
6256,-0.0039,0.0123,9.8094,-0.1357,-0.0709,0.1779,-1.8233,-36.8332,-38.3156
6264,-0.0021,0.0156,9.8190,-0.1806,-0.0696,0.1850,-1.8135,-36.6835,-38.1623
6272,-0.0082,0.0190,9.8200,-0.2077,-0.0710,0.1677,-1.8061,-36.5237,-37.9941
6280,-0.0064,0.0276,9.8100,-0.1429,-0.0164,0.1432,-1.7988,-36.3648,-37.8269
6288,0.0039,0.0290,9.8110,-0.1822,0.0306,0.1625,-1.7891,-36.2117,-37.6737
6296,0.0077,0.0294,9.8159,-0.2092,0.0621,0.0982,-1.7843,-36.0605,-37.5225
6304,0.0006,0.0197,9.8109,-0.2483,0.1242,0.1461,-1.7805,-35.9172,-37.3650
6312,-0.0071,0.0273,9.8177,-0.1870,0.0130,0.1572,-1.7815,-35.7676,-37.2131
6320,0.0050,0.0274,9.8211,-0.1178,0.1226,0.0558,-1.7824,-35.6188,-37.0619
6328,-0.0040,0.0324,9.8123,-0.1049,0.1741,0.1002,-1.7831,-35.4708,-36.9115
6336,-0.0045,0.0343,9.7980,-0.1325,0.2340,0.0306,-1.7827,-35.3190,-36.7435
6344,0.0060,0.0269,9.7942,-0.0817,0.1873,-0.0332,-1.7822,-35.1680,-36.5766
6352,0.0051,0.0270,9.7921,-0.1024,0.1320,-0.0889,-1.7816,-35.0179,-36.4107
6360,0.0079,0.0339,9.7925,-0.0475,0.1058,-0.0915,-1.7855,-34.8821,-36.2582
6368,0.0063,0.0219,9.7901,0.0023,0.2113,-0.2087,-1.7893,-34.7470,-36.1065
6376,0.0044,0.0234,9.7925,0.0580,0.2323,-0.0941,-1.7829,-34.6081,-35.9568
6384,0.0123,0.0184,9.7979,0.1272,0.1750,-0.1311,-1.7843,-34.4698,-35.8134
6392,0.0221,0.0147,9.7950,0.0707,0.1895,-0.0252,-1.7856,-34.3323,-35.6707
6400,0.0255,0.0114,9.7960,0.0167,0.1688,-0.0333,-1.7737,-34.1976,-35.5156
6408,0.0318,0.0171,9.8065,0.0317,0.1649,-0.0490,-1.7631,-34.0593,-35.3788
6416,0.0189,0.0227,9.8041,0.0674,0.1613,-0.0454,-1.7589,-33.9152,-35.2405
6424,0.0244,0.0319,9.8093,0.0828,0.1177,0.0621,-1.7484,-33.7729,-35.1018
6432,0.0144,0.0429,9.8080,0.0629,0.1348,0.0956,-1.7379,-33.6315,-34.9638
6440,0.0159,0.0387,9.8110,0.0093,0.1084,0.1169,-1.7275,-33.4854,-34.8212
6448,0.0112,0.0313,9.8228,0.0326,0.0699,0.1159,-1.7171,-33.3434,-34.6688
6456,0.0162,0.0319,9.8216,0.0709,0.0757,0.1310,-1.7131,-33.2168,-34.5246
6464,0.0215,0.0270,9.8124,0.1262,0.0546,0.1801,-1.7092,-33.0804,-34.3853
6472,0.0095,0.0225,9.8163,0.1044,0.0504,0.0724,-1.7052,-32.9447,-34.2468
6480,0.0042,0.0176,9.8262,0.1849,-0.0576,0.1534,-1.7012,-32.8098,-34.1090
6488,0.0116,0.0145,9.8188,0.1552,-0.0836,0.1749,-1.6921,-32.6827,-33.9718
6496,0.0065,0.0089,9.8130,0.1429,-0.1217,0.2061,-1.6830,-32.5562,-33.8354
6504,-0.0009,0.0089,9.8150,0.0884,-0.0782,0.2252,-1.6700,-32.4283,-33.6926
6512,-0.0167,0.0180,9.8137,0.1082,-0.1726,0.1209,-1.6570,-32.3010,-33.5506
6520,-0.0087,0.0053,9.8134,0.1299,-0.2815,0.0264,-1.6442,-32.1743,-33.4093
6528,-0.0005,0.0079,9.8163,0.1933,-0.2923,0.0774,-1.6265,-32.0453,-33.2758
6536,-0.0054,0.0030,9.8180,0.1606,-0.2787,-0.0311,-1.6258,-31.9169,-33.1430
6544,-0.0107,-0.0019,9.8127,0.1853,-0.2923,0.0437,-1.6132,-31.7892,-33.0109
6552,-0.0137,-0.0073,9.8130,0.2063,-0.2493,-0.0500,-1.6007,-31.6622,-32.8794
6560,-0.0146,-0.0003,9.8191,0.2610,-0.2589,-0.0063,-1.6050,-31.5436,-32.7447
6568,-0.0177,-0.0081,9.8169,0.2493,-0.1694,0.0088,-1.5946,-31.4177,-32.6107
6576,-0.0114,-0.0106,9.8118,0.1875,-0.1824,0.0819,-1.5861,-31.2973,-32.4774
6584,-0.0148,-0.0142,9.8148,0.1710,-0.0963,0.1385,-1.5778,-31.1775,-32.3448
6592,-0.0024,-0.0079,9.8090,0.2113,0.0208,0.0779,-1.5723,-31.0516,-32.2195
6600,-0.0012,-0.0040,9.7954,0.2284,0.0128,0.0840,-1.5583,-30.9273,-32.0940
6608,0.0127,-0.0078,9.7873,0.1862,0.0717,0.0685,-1.5444,-30.8035,-31.9691
6616,0.0152,-0.0172,9.7982,0.2071,0.0748,0.1843,-1.5325,-30.6842,-31.8391
6624,0.0088,-0.0101,9.7870,0.1125,0.1231,0.1511,-1.5207,-30.5655,-31.7097
6632,0.0076,-0.0202,9.7806,0.1686,0.0412,0.2047,-1.5090,-30.4474,-31.5811
6640,-0.0012,-0.0220,9.7907,0.1023,0.0669,0.1385,-1.5039,-30.3270,-31.4596
6648,-0.0070,-0.0313,9.7817,0.1402,0.0835,0.1207,-1.4988,-30.2072,-31.3387
6656,-0.0112,-0.0430,9.7817,0.1232,0.0061,0.0769,-1.4928,-30.0917,-31.2129
6664,-0.0083,-0.0385,9.7876,0.2002,-0.0226,0.0643,-1.4868,-29.9768,-31.0877
6672,-0.0070,-0.0308,9.7848,0.1619,0.0459,-0.0383,-1.4791,-29.8541,-30.9640
6680,-0.0035,-0.0307,9.7859,0.1652,0.0287,0.0449,-1.4732,-29.7403,-30.8401
6688,-0.0163,-0.0306,9.7868,0.1097,0.0443,-0.0809,-1.4655,-29.6261,-30.7177
6696,-0.0060,-0.0278,9.7759,0.1153,0.1313,-0.0439,-1.4606,-29.5143,-30.6004
6704,0.0006,-0.0206,9.7705,0.1260,0.1824,0.0689,-1.4556,-29.4030,-30.4837
6712,-0.0044,-0.0178,9.7720,0.0802,0.1593,0.0487,-1.4507,-29.2860,-30.3585
6720,0.0047,-0.0240,9.7716,0.1245,0.0705,0.1041,-1.4423,-29.1722,-30.2439
6728,-0.0002,-0.0318,9.7757,0.1241,0.0603,0.0077,-1.4392,-29.0536,-30.1200
6736,-0.0065,-0.0229,9.7709,0.1291,0.1358,0.0222,-1.4264,-28.9348,-30.0020
6744,-0.0117,-0.0167,9.7714,0.1338,0.1601,-0.0866,-1.4137,-28.8166,-29.8847
6752,-0.0028,-0.0188,9.7761,0.1224,0.1726,-0.0627,-1.4081,-28.7103,-29.7661
6760,0.0017,-0.0103,9.7853,0.1488,0.2193,-0.0291,-1.4026,-28.6046,-29.6482
6768,-0.0057,-0.0148,9.7904,0.1233,0.0959,0.0910,-1.3953,-28.4958,-29.5317
6776,-0.0156,-0.0112,9.7882,0.0190,-0.0141,0.1125,-1.3881,-28.3876,-29.4157
6784,-0.0104,-0.0025,9.7949,-0.0007,-0.1433,0.1651,-1.3809,-28.2799,-29.3004
6792,-0.0098,-0.0050,9.7918,-0.0410,-0.1788,0.1727,-1.3720,-28.1701,-29.1856
6800,-0.0151,0.0013,9.7781,0.0166,-0.2101,0.1586,-1.3632,-28.0608,-29.0713
6808,-0.0118,0.0047,9.7853,0.0156,-0.2214,0.1639,-1.3595,-27.9512,-28.9542
6816,-0.0101,0.0060,9.7859,0.0040,-0.2615,0.1555,-1.3559,-27.8422,-28.8377
6824,-0.0137,0.0072,9.7937,-0.0125,-0.1826,0.0142,-1.3438,-27.7404,-28.7243
6832,-0.0260,0.0110,9.7966,-0.0229,-0.2457,0.0524,-1.3428,-27.6341,-28.6073
6840,-0.0280,0.0213,9.7989,-0.0301,-0.1594,0.0543,-1.3375,-27.5307,-28.4950
6848,-0.0252,0.0178,9.8050,-0.0584,-0.1676,0.0108,-1.3339,-27.4279,-28.3808
6856,-0.0177,0.0238,9.8014,-0.0001,-0.1221,0.0305,-1.3304,-27.3255,-28.2672
6864,-0.0064,0.0215,9.8009,-0.0110,-0.0972,0.0066,-1.3210,-27.2211,-28.1607
6872,-0.0103,0.0280,9.7991,-0.0268,-0.1188,0.0425,-1.3167,-27.1147,-28.0514
6880,-0.0060,0.0303,9.7970,-0.0259,-0.0887,0.0741,-1.3115,-27.0055,-27.9460
6888,-0.0090,0.0278,9.7923,-0.0197,-0.1506,0.0004,-1.3064,-26.8969,-27.8410
6896,-0.0204,0.0241,9.7982,-0.0298,-0.2098,-0.0274,-1.3013,-26.7888,-27.7366
6904,-0.0234,0.0190,9.7975,0.0513,-0.1678,0.0739,-1.2970,-26.6821,-27.6310
6912,-0.0165,0.0240,9.7987,0.0141,-0.1249,0.1362,-1.2927,-26.5758,-27.5259
6920,-0.0149,0.0194,9.7962,0.0639,-0.1106,0.1824,-1.2901,-26.4701,-27.4237
6928,-0.0116,0.0193,9.8003,0.0342,-0.1689,0.0559,-1.2875,-26.3649,-27.3220
6936,-0.0013,0.0247,9.7954,0.0484,-0.1233,0.0896,-1.2849,-26.2602,-27.2207
6944,0.0044,0.0313,9.7977,0.0274,-0.0611,0.1885,-1.2783,-26.1625,-27.1159
6952,0.0045,0.0201,9.7980,0.0046,-0.1909,0.2085,-1.2773,-26.0635,-27.0164
6960,-0.0036,0.0149,9.8033,-0.0545,-0.2696,0.2568,-1.2659,-25.9635,-26.9078
6968,-0.0036,0.0084,9.8035,-0.0471,-0.3503,0.2311,-1.2546,-25.8639,-26.7997
6976,0.0054,0.0107,9.8083,-0.0586,-0.4328,0.1985,-1.2497,-25.7624,-26.6937
6984,0.0187,0.0115,9.8030,-0.0990,-0.4743,0.1380,-1.2457,-25.6645,-26.5954
6992,0.0138,0.0135,9.8033,-0.0549,-0.5407,0.1201,-1.2385,-25.5585,-26.4943
7000,0.0185,0.0194,9.8049,-0.0768,-0.4656,0.1190,-1.2344,-25.4640,-26.4023
7008,0.0159,0.0184,9.8045,-0.0790,-0.5537,0.0620,-1.2304,-25.3698,-26.3107
7016,0.0140,0.0161,9.8101,-0.1105,-0.5179,0.0928,-1.2218,-25.2707,-26.2110
7024,0.0168,0.0132,9.8088,-0.1059,-0.4517,0.1009,-1.2170,-25.1705,-26.1117
7032,0.0212,0.0214,9.8080,-0.1229,-0.4258,0.0820,-1.2223,-25.0738,-26.0137
7040,0.0293,0.0197,9.8069,-0.1124,-0.3796,0.1306,-1.2276,-24.9776,-25.9160
7048,0.0161,0.0146,9.8136,-0.1318,-0.4048,0.1797,-1.2328,-24.8818,-25.8189
7056,0.0064,-0.0001,9.8042,-0.1183,-0.4129,0.2053,-1.2264,-24.7942,-25.7191
7064,0.0018,-0.0061,9.7957,-0.0947,-0.3513,0.1392,-1.2201,-24.7069,-25.6198
7072,-0.0015,-0.0101,9.8016,-0.1068,-0.3484,0.1612,-1.2153,-24.6093,-25.5271
7080,0.0006,-0.0065,9.8070,-0.0411,-0.3483,0.1477,-1.2106,-24.5123,-25.4347
7088,0.0001,-0.0068,9.8115,-0.0449,-0.4096,0.2307,-1.2058,-24.4156,-25.3428
7096,0.0006,-0.0149,9.8045,-0.0458,-0.3481,0.1875,-1.2056,-24.3277,-25.2483
7104,-0.0007,-0.0236,9.8065,-0.0894,-0.4174,0.1354,-1.2009,-24.2357,-25.1556
7112,-0.0042,-0.0223,9.7987,-0.0671,-0.3609,0.1470,-1.1939,-24.1456,-25.0634
7120,0.0049,-0.0198,9.8057,-0.0031,-0.4403,0.1368,-1.1870,-24.0560,-24.9717
7128,0.0146,-0.0121,9.8089,0.0048,-0.5162,0.1723,-1.1786,-23.9726,-24.8855
7136,0.0050,-0.0115,9.8122,-0.0437,-0.4394,0.2009,-1.1681,-23.8822,-24.7960
7144,0.0037,-0.0155,9.8080,-0.0394,-0.4833,0.3189,-1.1613,-23.7848,-24.7069
7152,-0.0007,-0.0186,9.8105,-0.0566,-0.4346,0.2905,-1.1538,-23.6887,-24.6100
7160,0.0054,-0.0192,9.8059,-0.0890,-0.2254,0.2286,-1.1463,-23.5929,-24.5137
7168,-0.0014,-0.0270,9.8196,-0.0961,-0.2334,0.2041,-1.1433,-23.5006,-24.4185
7176,-0.0099,-0.0259,9.8201,-0.1321,-0.2063,0.1407,-1.1403,-23.4087,-24.3237
7184,-0.0043,-0.0271,9.8132,-0.1266,-0.2258,-0.0080,-1.1344,-23.3179,-24.2360
7192,0.0049,-0.0201,9.8121,-0.0573,-0.2737,0.0179,-1.1285,-23.2276,-24.1486
7200,0.0049,-0.0160,9.8096,-0.0844,-0.2982,-0.0347,-1.1226,-23.1377,-24.0616
7208,-0.0005,-0.0150,9.8093,-0.0890,-0.2843,0.1096,-1.1117,-23.0518,-23.9750
7216,0.0046,-0.0141,9.8162,-0.1360,-0.3830,0.1783,-1.1009,-22.9663,-23.8888
7224,0.0043,-0.0178,9.8189,-0.1837,-0.4214,0.2387,-1.0937,-22.8776,-23.8044
7232,0.0203,-0.0048,9.8240,-0.1759,-0.3514,0.1951,-1.0872,-22.7957,-23.7232
7240,0.0153,0.0010,9.8204,-0.2191,-0.2552,0.1507,-1.0809,-22.7142,-23.6423
7248,0.0039,0.0022,9.8104,-0.2632,-0.2672,0.2683,-1.0788,-22.6245,-23.5504
7256,0.0127,0.0024,9.8095,-0.2919,-0.2839,0.2421,-1.0760,-22.5472,-23.4668
7264,0.0189,0.0067,9.8260,-0.3541,-0.2680,0.2116,-1.0703,-22.4661,-23.3842
7272,0.0226,-0.0086,9.8195,-0.4135,-0.2581,0.1399,-1.0647,-22.3796,-23.3019
7280,0.0233,-0.0024,9.8209,-0.4650,-0.1793,0.1033,-1.0592,-22.2936,-23.2151
7288,0.0243,-0.0027,9.8199,-0.4396,-0.1412,0.0442,-1.0585,-22.2121,-23.1315
7296,0.0184,-0.0021,9.8213,-0.4473,-0.1369,0.1078,-1.0523,-22.1310,-23.0426
7304,0.0172,-0.0097,9.8212,-0.5133,-0.0767,0.1366,-1.0454,-22.0530,-22.9555
7312,0.0193,-0.0111,9.8197,-0.4645,-0.0911,0.2255,-1.0385,-21.9754,-22.8688
7320,0.0089,-0.0092,9.8152,-0.5298,-0.0409,0.2091,-1.0393,-21.8954,-22.7832
7328,0.0081,-0.0020,9.8074,-0.4642,-0.0863,0.2201,-1.0401,-21.8156,-22.6980
7336,0.0070,-0.0074,9.8027,-0.4708,-0.0790,0.0893,-1.0346,-21.7300,-22.6187
7344,0.0100,-0.0095,9.8044,-0.4478,-0.0960,0.1642,-1.0292,-21.6448,-22.5397
7352,0.0137,-0.0150,9.8072,-0.4578,-0.0803,0.1959,-1.0237,-21.5599,-22.4611
7360,0.0011,-0.0046,9.8135,-0.4141,-0.1666,0.2208,-1.0156,-21.4796,-22.3780
7368,0.0033,0.0013,9.8132,-0.4842,-0.1824,0.1567,-1.0075,-21.3996,-22.2952
7376,0.0072,-0.0012,9.8147,-0.5033,-0.0616,0.1486,-1.0015,-21.3220,-22.2135
7384,0.0043,0.0016,9.8057,-0.4949,0.0727,0.1623,-0.9989,-21.2468,-22.1376
7392,0.0003,0.0032,9.8025,-0.4815,0.0117,0.0660,-0.9963,-21.1719,-22.0621
7400,0.0113,0.0028,9.8023,-0.4180,0.0067,0.0620,-0.9924,-21.0974,-21.9848
7408,0.0071,0.0011,9.8045,-0.4027,0.0526,0.0901,-0.9858,-21.0238,-21.9037
7416,-0.0003,0.0050,9.8087,-0.3560,0.0005,0.0690,-0.9867,-20.9478,-21.8271
7424,-0.0020,0.0045,9.8107,-0.4020,-0.0280,0.1955,-0.9801,-20.8715,-21.7501
7432,0.0037,-0.0006,9.8148,-0.3767,-0.0419,0.1484,-0.9735,-20.7955,-21.6735
7440,0.0121,0.0172,9.8112,-0.3792,-0.0632,0.2768,-0.9711,-20.7225,-21.5931
7448,0.0133,0.0077,9.8061,-0.2775,-0.1049,0.2262,-0.9659,-20.6492,-21.5138
7456,0.0107,0.0151,9.8120,-0.3163,-0.0888,0.1538,-0.9608,-20.5762,-21.4348
7464,0.0080,0.0236,9.8146,-0.3134,0.0439,0.2285,-0.9516,-20.4988,-21.3588
7472,0.0118,0.0186,9.8064,-0.2466,0.0189,0.1134,-0.9425,-20.4217,-21.2831
7480,0.0067,0.0249,9.8091,-0.2228,0.0056,0.1873,-0.9335,-20.3449,-21.2078
7488,-0.0034,0.0311,9.8152,-0.2746,-0.0311,0.2046,-0.9232,-20.2719,-21.1327
7496,-0.0049,0.0199,9.8229,-0.2922,-0.0129,0.3171,-0.9130,-20.1991,-21.0580
7504,-0.0039,0.0293,9.8213,-0.1997,-0.0115,0.3447,-0.9028,-20.1266,-20.9836
7512,-0.0103,0.0297,9.8248,-0.2179,-0.1274,0.3045,-0.9032,-20.0505,-20.9036
7520,-0.0119,0.0195,9.8230,-0.1953,-0.1183,0.3567,-0.9029,-19.9754,-20.8312
7528,-0.0198,0.0226,9.8386,-0.2030,-0.1790,0.3532,-0.8961,-19.9038,-20.7558
7536,-0.0238,0.0171,9.8446,-0.2371,-0.2849,0.3020,-0.8939,-19.8378,-20.6840
7544,-0.0205,0.0154,9.8345,-0.2696,-0.2609,0.2609,-0.8916,-19.7721,-20.6124
7552,-0.0167,0.0039,9.8318,-0.3274,-0.2753,0.2430,-0.8881,-19.7054,-20.5412
7560,-0.0260,0.0034,9.8311,-0.3507,-0.3158,0.2499,-0.8885,-19.6363,-20.4677
7568,-0.0157,0.0035,9.8328,-0.3409,-0.3304,0.3071,-0.8896,-19.5616,-20.3958
7576,-0.0168,0.0090,9.8407,-0.2970,-0.3311,0.3459,-0.8939,-19.4905,-20.3209
7584,0.0026,0.0195,9.8319,-0.2709,-0.2224,0.3936,-0.8981,-19.4197,-20.2463
7592,-0.0049,0.0194,9.8230,-0.2567,-0.2012,0.4152,-0.8926,-19.3492,-20.1721
7600,-0.0116,0.0211,9.8205,-0.2297,-0.1408,0.4012,-0.8871,-19.2771,-20.0982
7608,-0.0068,0.0231,9.8241,-0.2226,-0.0965,0.3318,-0.8817,-19.2053,-20.0246
7616,-0.0061,0.0204,9.8155,-0.2478,-0.0461,0.3348,-0.8769,-19.1350,-19.9551
7624,-0.0050,0.0220,9.8123,-0.2505,-0.0459,0.2630,-0.8721,-19.0651,-19.8860
7632,-0.0017,0.0253,9.8194,-0.2052,-0.0723,0.4583,-0.8674,-18.9954,-19.8171
7640,0.0040,0.0238,9.8249,-0.1858,-0.1536,0.4638,-0.8614,-18.9293,-19.7466
7648,0.0028,0.0314,9.8199,-0.2766,-0.1487,0.4663,-0.8555,-18.8634,-19.6764
7656,0.0181,0.0325,9.8113,-0.2568,-0.2640,0.4288,-0.8508,-18.7907,-19.6064
7664,0.0160,0.0266,9.8171,-0.2005,-0.2436,0.3795,-0.8461,-18.7184,-19.5368
7672,0.0164,0.0258,9.8210,-0.2186,-0.2161,0.3911,-0.8358,-18.6515,-19.4675
7680,0.0144,0.0205,9.8000,-0.2653,-0.1124,0.3355,-0.8344,-18.5848,-19.4047
7688,0.0113,0.0176,9.8042,-0.2460,-0.0773,0.3623,-0.8273,-18.5172,-19.3359
7696,0.0085,0.0241,9.8194,-0.3421,-0.0411,0.2973,-0.8272,-18.4504,-19.2668
7704,0.0150,0.0217,9.8108,-0.2954,-0.0144,0.3471,-0.8270,-18.3840,-19.1979
7712,0.0251,0.0259,9.8121,-0.3361,0.0671,0.3094,-0.8206,-18.3178,-19.1262
7720,0.0305,0.0157,9.8188,-0.3217,0.0810,0.3267,-0.8223,-18.2525,-19.0585
7728,0.0309,0.0218,9.8075,-0.2465,0.0623,0.2553,-0.8178,-18.1893,-18.9962
7736,0.0216,0.0197,9.8083,-0.1880,0.0418,0.2589,-0.8133,-18.1264,-18.9340
7744,0.0051,0.0136,9.8021,-0.2014,0.0728,0.1398,-0.8088,-18.0638,-18.8722
7752,-0.0013,0.0123,9.8061,-0.2088,0.1372,0.2285,-0.8000,-18.0014,-18.8031
7760,0.0162,0.0119,9.8165,-0.2613,0.2040,0.1267,-0.7912,-17.9393,-18.7342
7768,0.0075,0.0034,9.8128,-0.2715,0.1373,0.1680,-0.7887,-17.8743,-18.6732
7776,0.0082,-0.0024,9.8226,-0.2252,0.1055,0.1435,-0.7862,-17.8096,-18.6123
7784,0.0143,-0.0041,9.8155,-0.2103,0.0911,0.0507,-0.7837,-17.7451,-18.5517
7792,0.0254,-0.0088,9.8155,-0.2093,0.0720,0.0846,-0.7824,-17.6791,-18.4852
7800,0.0258,-0.0076,9.8073,-0.2298,0.0564,0.0771,-0.7793,-17.6170,-18.4195
7808,0.0261,-0.0055,9.8162,-0.2307,0.0121,0.0806,-0.7737,-17.5534,-18.3566
7816,0.0191,-0.0051,9.8116,-0.2795,-0.0009,0.0812,-0.7681,-17.4900,-18.2939
7824,0.0192,-0.0106,9.8192,-0.2302,0.0480,0.0951,-0.7614,-17.4219,-18.2315
7832,0.0175,-0.0119,9.8238,-0.1911,0.0681,0.1085,-0.7589,-17.3621,-18.1662
7840,0.0213,-0.0018,9.8235,-0.1110,0.0580,0.1239,-0.7590,-17.2903,-18.0958
7848,0.0189,0.0042,9.8236,-0.1250,0.0590,0.1253,-0.7541,-17.2268,-18.0305
7856,0.0204,-0.0003,9.8237,-0.1625,0.0306,0.1240,-0.7492,-17.1636,-17.9655
7864,0.0190,-0.0013,9.8234,-0.1557,-0.0472,0.1094,-0.7444,-17.1036,-17.9019
7872,0.0104,0.0056,9.8267,-0.2211,-0.1163,0.1515,-0.7396,-17.0440,-17.8386
7880,0.0091,-0.0041,9.8370,-0.2170,0.0257,0.1303,-0.7403,-16.9870,-17.7762
7888,0.0105,-0.0002,9.8299,-0.1758,0.0441,0.1155,-0.7409,-16.9302,-17.7140
7896,0.0174,-0.0016,9.8290,-0.1390,0.0857,0.1706,-0.7416,-16.8737,-17.6521
7904,0.0253,-0.0156,9.8322,-0.1146,0.0241,0.1620,-0.7368,-16.8168,-17.5898
7912,0.0121,-0.0124,9.8220,-0.1471,-0.0267,0.1564,-0.7320,-16.7602,-17.5278
7920,0.0101,-0.0063,9.8273,-0.1383,0.0046,0.1030,-0.7303,-16.7020,-17.4618
7928,-0.0058,-0.0067,9.8156,-0.1459,-0.0347,0.1667,-0.7286,-16.6440,-17.3961
7936,0.0021,-0.0047,9.8156,-0.1611,-0.0323,0.1156,-0.7208,-16.5941,-17.3366
7944,0.0006,-0.0080,9.8133,-0.1356,-0.0274,0.1120,-0.7197,-16.5348,-17.2810
7952,0.0093,-0.0078,9.8176,-0.0926,-0.0813,0.0019,-0.7144,-16.4799,-17.2184
7960,0.0103,-0.0085,9.8196,-0.0782,-0.1462,-0.0180,-0.7133,-16.4175,-17.1560
7968,0.0108,-0.0141,9.8169,-0.1337,-0.1416,-0.0904,-0.7122,-16.3554,-17.0940
7976,0.0084,-0.0165,9.8118,-0.1414,-0.1266,-0.0769,-0.7082,-16.3013,-17.0363
7984,0.0054,-0.0050,9.8199,-0.1648,-0.0908,-0.1147,-0.7065,-16.2450,-16.9765
7992,0.0059,0.0014,9.8203,-0.1072,-0.0727,0.0785,-0.7054,-16.1884,-16.9193
8000,-0.0005,-0.0043,9.8053,-0.1721,-0.0686,0.0045,-0.7032,-16.1320,-16.8593
8008,0.0014,-0.0081,9.7985,-0.2369,-0.0541,-0.0502,-0.7009,-16.0759,-16.7996
8016,0.0000,0.0008,9.8051,-0.2134,-0.0642,-0.1371,-0.6957,-16.0258,-16.7413
8024,-0.0017,-0.0034,9.8138,-0.2603,0.0008,-0.1270,-0.6905,-15.9760,-16.6832
8032,-0.0183,-0.0045,9.8057,-0.2732,-0.0384,-0.0799,-0.6889,-15.9211,-16.6307
8040,-0.0188,-0.0019,9.8035,-0.3042,-0.0358,-0.1123,-0.6873,-15.8664,-16.5784
8048,-0.0133,-0.0068,9.8028,-0.2298,-0.0094,-0.0045,-0.6857,-15.8120,-16.5262
8056,-0.0110,0.0015,9.8035,-0.3134,0.0185,-0.0988,-0.6894,-15.7560,-16.4708
8064,-0.0136,-0.0042,9.8064,-0.3719,-0.0081,-0.1570,-0.6930,-15.7002,-16.4155
8072,-0.0108,-0.0029,9.7995,-0.4599,0.0785,-0.1833,-0.6867,-15.6535,-16.3605
8080,-0.0102,-0.0073,9.7992,-0.4001,0.0199,-0.1738,-0.6804,-15.6069,-16.3057
8088,-0.0114,-0.0094,9.7966,-0.4522,0.0199,-0.2607,-0.6747,-15.5553,-16.2546
8096,-0.0116,-0.0095,9.7952,-0.4220,-0.0308,-0.2291,-0.6755,-15.5015,-16.1972
8104,-0.0086,-0.0228,9.8108,-0.4678,-0.0792,-0.2549,-0.6710,-15.4474,-16.1378
8112,-0.0118,-0.0170,9.8149,-0.4556,-0.0589,-0.2423,-0.6671,-15.3970,-16.0839
8120,0.0017,-0.0109,9.8135,-0.3959,-0.0208,-0.2515,-0.6632,-15.3468,-16.0301
8128,0.0043,-0.0113,9.8128,-0.4295,-0.0190,-0.1484,-0.6576,-15.2933,-15.9800
8136,0.0044,-0.0099,9.8158,-0.4644,-0.0413,-0.1670,-0.6561,-15.2430,-15.9215
8144,0.0046,-0.0026,9.8203,-0.3723,-0.1106,-0.1396,-0.6574,-15.1911,-15.8718
8152,0.0051,-0.0056,9.8225,-0.3723,-0.0436,-0.1293,-0.6588,-15.1394,-15.8223
8160,0.0033,0.0007,9.8200,-0.3803,-0.0168,-0.0901,-0.6601,-15.0879,-15.7731
8168,0.0063,0.0024,9.8182,-0.3399,-0.1086,-0.0847,-0.6632,-15.0338,-15.7153
8176,-0.0002,-0.0024,9.8093,-0.3040,-0.0550,-0.1088,-0.6662,-14.9799,-15.6578
8184,-0.0033,0.0100,9.8039,-0.2269,0.0176,-0.1799,-0.6612,-14.9313,-15.5971
8192,-0.0106,0.0017,9.8105,-0.2919,-0.0436,-0.1732,-0.6562,-14.8830,-15.5366
8200,-0.0182,-0.0013,9.8064,-0.2341,-0.1528,-0.1481,-0.6512,-14.8349,-15.4763
8208,-0.0100,0.0047,9.8113,-0.2295,-0.0919,-0.1882,-0.6474,-14.7841,-15.4232
8216,-0.0058,0.0083,9.8121,-0.2463,-0.0924,-0.2664,-0.6459,-14.7283,-15.3685
8224,-0.0052,0.0124,9.8129,-0.2732,-0.1248,-0.3519,-0.6438,-14.6751,-15.3175
8232,-0.0082,0.0053,9.8104,-0.2721,-0.0945,-0.2711,-0.6401,-14.6220,-15.2667
8240,-0.0078,0.0143,9.8081,-0.3432,-0.1908,-0.2817,-0.6363,-14.5738,-15.2132
8248,-0.0111,0.0197,9.8024,-0.3391,-0.1603,-0.2812,-0.6342,-14.5269,-15.1611
8256,-0.0118,0.0150,9.7991,-0.2979,-0.2084,-0.2994,-0.6260,-14.4768,-15.1074
8264,-0.0092,0.0185,9.8011,-0.1864,-0.1851,-0.2448,-0.6274,-14.4314,-15.0569
8272,-0.0097,0.0240,9.8125,-0.1919,-0.1415,-0.1686,-0.6287,-14.3861,-15.0065
8280,-0.0064,0.0284,9.8150,-0.1624,-0.0651,-0.1651,-0.6267,-14.3326,-14.9551
8288,-0.0194,0.0307,9.8196,-0.1369,-0.0641,-0.3510,-0.6196,-14.2844,-14.9051
8296,-0.0247,0.0195,9.8224,-0.1125,-0.1084,-0.3822,-0.6142,-14.2335,-14.8581
8304,-0.0205,0.0144,9.8158,-0.1265,-0.1428,-0.4013,-0.6089,-14.1829,-14.8113
8312,-0.0185,0.0120,9.8143,-0.1052,-0.0530,-0.4249,-0.6035,-14.1324,-14.7646
8320,-0.0107,0.0122,9.8144,-0.0822,0.0515,-0.4342,-0.5965,-14.0838,-14.7108
8328,-0.0119,0.0105,9.8086,-0.0896,0.1594,-0.3124,-0.5896,-14.0355,-14.6572
8336,-0.0207,0.0099,9.8019,-0.0912,0.1080,-0.3185,-0.5838,-13.9867,-14.6072
8344,-0.0155,0.0052,9.8018,-0.0609,0.1175,-0.2898,-0.5780,-13.9382,-14.5574
8352,-0.0185,0.0069,9.8109,-0.0078,0.1745,-0.2409,-0.5722,-13.8898,-14.5078
8360,-0.0207,0.0089,9.8113,-0.0477,0.1971,-0.2689,-0.5676,-13.8456,-14.4611
8368,-0.0110,0.0130,9.8167,-0.0032,0.2267,-0.2716,-0.5641,-13.7976,-14.4107
8376,0.0002,0.0140,9.8070,0.0313,0.2443,-0.4023,-0.5634,-13.7509,-14.3617
8384,-0.0098,0.0190,9.8050,0.0377,0.2345,-0.4232,-0.5588,-13.7033,-14.3116
8392,0.0012,0.0248,9.8096,-0.0202,0.3318,-0.4538,-0.5543,-13.6559,-14.2618
8400,0.0021,0.0219,9.7997,0.0097,0.2568,-0.5125,-0.5497,-13.6126,-14.2133
8408,-0.0007,0.0211,9.7966,0.0277,0.2224,-0.5286,-0.5485,-13.5689,-14.1661
8416,-0.0001,0.0136,9.8089,0.0449,0.1895,-0.5146,-0.5496,-13.5231,-14.1179
8424,-0.0119,0.0113,9.8213,0.0160,0.1208,-0.5119,-0.5512,-13.4742,-14.0655
8432,-0.0057,0.0247,9.8198,-0.0409,0.1644,-0.3787,-0.5527,-13.4254,-14.0133
8440,0.0004,0.0301,9.8130,0.0006,0.1554,-0.3153,-0.5543,-13.3769,-13.9613
8448,0.0045,0.0340,9.8096,-0.0104,0.1121,-0.3320,-0.5548,-13.3313,-13.9150
8456,0.0106,0.0334,9.8106,0.0565,0.0521,-0.2254,-0.5552,-13.2859,-13.8689
8464,0.0174,0.0224,9.8006,0.0778,0.1360,-0.2433,-0.5556,-13.2407,-13.8229
8472,0.0181,0.0197,9.8011,0.0901,0.0562,-0.2925,-0.5539,-13.1951,-13.7749
8480,0.0137,0.0328,9.7978,0.0726,0.1160,-0.4169,-0.5521,-13.1497,-13.7272
8488,0.0147,0.0305,9.8086,0.0611,0.0824,-0.4665,-0.5476,-13.1027,-13.6823
8496,0.0089,0.0239,9.7988,0.0769,0.1064,-0.4606,-0.5436,-13.0555,-13.6354
8504,0.0145,0.0238,9.8013,0.0599,0.1079,-0.3216,-0.5397,-13.0084,-13.5887
8512,0.0191,0.0324,9.7980,0.0944,0.1681,-0.2127,-0.5358,-12.9670,-13.5449
8520,0.0251,0.0375,9.8060,0.1886,0.1456,-0.0793,-0.5374,-12.9258,-13.5012
8528,0.0214,0.0307,9.8138,0.2175,0.1587,-0.0663,-0.5340,-12.8797,-13.4545
8536,0.0308,0.0336,9.8185,0.2024,0.2007,-0.0112,-0.5328,-12.8388,-13.4101
8544,0.0212,0.0335,9.8259,0.1666,0.1714,-0.0759,-0.5317,-12.7981,-13.3658
8552,0.0188,0.0362,9.8276,0.1697,0.1194,-0.0524,-0.5305,-12.7558,-13.3190
8560,0.0248,0.0358,9.8305,0.1540,0.1391,-0.0113,-0.5327,-12.7159,-13.2767
8568,0.0230,0.0260,9.8318,0.0804,0.1579,-0.0840,-0.5392,-12.6707,-13.2346
8576,0.0250,0.0289,9.8248,0.1032,0.1305,-0.1108,-0.5374,-12.6284,-13.1927
8584,0.0217,0.0252,9.8230,0.0291,0.1097,-0.1791,-0.5357,-12.5863,-13.1509
8592,0.0125,0.0223,9.8177,0.0543,0.1484,-0.0898,-0.5339,-12.5443,-13.1092
8600,0.0159,0.0064,9.8193,0.0410,0.1694,-0.1004,-0.5371,-12.5047,-13.0606
8608,0.0190,0.0176,9.8239,0.0656,0.1095,0.0202,-0.5402,-12.4652,-13.0122
8616,0.0264,0.0158,9.8158,0.0651,0.1483,0.0128,-0.5330,-12.4226,-12.9662
8624,0.0240,0.0161,9.8180,0.0567,0.1267,0.0857,-0.5258,-12.3801,-12.9203
8632,0.0177,0.0199,9.8219,0.0379,0.1620,0.0648,-0.5186,-12.3379,-12.8746
8640,0.0129,0.0084,9.8212,-0.0333,0.0491,0.0902,-0.5174,-12.2990,-12.8280
8648,0.0167,0.0093,9.8175,-0.0481,0.1145,0.0344,-0.5157,-12.2570,-12.7827
8656,0.0066,0.0189,9.8054,-0.0596,0.1637,0.1064,-0.5107,-12.2152,-12.7375
8664,0.0001,0.0184,9.8054,0.0254,0.2267,0.0952,-0.5057,-12.1752,-12.6930
8672,0.0043,0.0147,9.8091,0.0720,0.3083,0.1405,-0.5051,-12.1391,-12.6465
8680,-0.0038,0.0151,9.8234,0.0819,0.3250,0.1679,-0.5001,-12.1010,-12.6062
8688,-0.0043,0.0158,9.8171,0.0808,0.2050,0.2394,-0.4946,-12.0662,-12.5665
8696,-0.0084,0.0193,9.8142,-0.0110,0.1356,0.2198,-0.4891,-12.0316,-12.5270
8704,-0.0048,0.0137,9.8120,0.0079,0.1919,0.1423,-0.4896,-11.9939,-12.4843
8712,-0.0047,0.0110,9.8183,0.0099,0.1657,0.1509,-0.4847,-11.9510,-12.4408
8720,0.0022,0.0135,9.8221,0.0386,0.0900,0.0898,-0.4798,-11.9082,-12.3974
8728,0.0053,0.0053,9.8178,0.0446,0.0656,0.1701,-0.4775,-11.8666,-12.3553
8736,-0.0102,0.0020,9.8103,0.0664,0.1009,0.0868,-0.4753,-11.8252,-12.3133
8744,-0.0050,-0.0078,9.8044,0.0046,0.1400,0.1352,-0.4731,-11.7840,-12.2714
8752,-0.0027,0.0033,9.7967,-0.0546,0.2067,0.1094,-0.4709,-11.7472,-12.2313
8760,-0.0092,-0.0030,9.7981,-0.0818,0.2119,0.0501,-0.4687,-11.7105,-12.1914
8768,-0.0028,-0.0041,9.8011,-0.0278,0.1475,-0.0492,-0.4595,-11.6713,-12.1500
8776,-0.0093,0.0021,9.7965,-0.0428,0.0859,-0.0083,-0.4504,-11.6323,-12.1087
8784,0.0013,0.0100,9.7887,-0.1079,0.1497,-0.0411,-0.4461,-11.5982,-12.0682
8792,0.0058,-0.0042,9.7867,-0.0741,0.1040,0.0262,-0.4408,-11.5615,-12.0278
8800,0.0003,0.0039,9.7789,-0.0898,0.0096,0.0079,-0.4424,-11.5229,-11.9870
8808,0.0012,-0.0034,9.7806,-0.0675,-0.0272,-0.1163,-0.4387,-11.4887,-11.9506
8816,-0.0052,-0.0022,9.7711,-0.0728,0.1268,-0.2137,-0.4350,-11.4546,-11.9143
8824,-0.0151,0.0011,9.7712,-0.0805,0.0448,-0.2348,-0.4303,-11.4163,-11.8755
8832,-0.0004,-0.0055,9.7713,-0.1359,0.0170,-0.2497,-0.4234,-11.3830,-11.8358
8840,-0.0003,-0.0087,9.7764,-0.1249,0.1345,-0.2640,-0.4245,-11.3456,-11.7989
8848,0.0062,-0.0020,9.7764,-0.0424,0.1241,-0.2856,-0.4230,-11.3083,-11.7594
8856,0.0080,0.0013,9.7838,-0.0301,0.2156,-0.2769,-0.4215,-11.2711,-11.7201
8864,0.0096,-0.0021,9.7790,-0.0531,0.1003,-0.1913,-0.4147,-11.2367,-11.6746
8872,0.0174,-0.0019,9.7802,-0.0190,0.1341,-0.1628,-0.4079,-11.2025,-11.6292
8880,0.0213,-0.0005,9.7772,-0.0211,0.1505,-0.1755,-0.4069,-11.1662,-11.5862
8888,0.0225,0.0095,9.7899,0.0116,0.1954,-0.1557,-0.4060,-11.1301,-11.5433
8896,0.0241,0.0017,9.7914,0.1068,0.2331,-0.1340,-0.4050,-11.0942,-11.5005
8904,0.0232,-0.0113,9.8023,0.1125,0.2904,-0.2867,-0.3983,-11.0578,-11.4611
8912,0.0193,-0.0153,9.7949,0.2087,0.3746,-0.2300,-0.3916,-11.0216,-11.4218
8920,0.0130,-0.0103,9.7873,0.2286,0.3591,-0.1891,-0.3838,-10.9870,-11.3826
8928,0.0209,-0.0048,9.7849,0.2050,0.2642,-0.1073,-0.3761,-10.9526,-11.3436
8936,0.0222,-0.0062,9.7951,0.1531,0.2802,-0.0665,-0.3768,-10.9173,-11.3053
8944,0.0279,-0.0030,9.7920,0.1169,0.2955,-0.0434,-0.3734,-10.8837,-11.2687
8952,0.0240,-0.0096,9.8015,0.1301,0.2034,-0.0907,-0.3683,-10.8523,-11.2327
8960,0.0163,-0.0010,9.8024,0.1349,0.2087,0.0295,-0.3722,-10.8195,-11.1969
8968,0.0130,-0.0160,9.7972,0.2114,0.1711,0.0057,-0.3761,-10.7867,-11.1612
8976,0.0100,-0.0059,9.8026,0.0952,0.1965,0.0629,-0.3742,-10.7552,-11.1251
8984,-0.0009,-0.0009,9.8047,0.0321,0.3008,0.0163,-0.3713,-10.7216,-11.0859
8992,-0.0085,0.0073,9.8039,0.0144,0.3418,0.0251,-0.3673,-10.6866,-11.0490
9000,-0.0049,-0.0080,9.7986,0.0455,0.3277,-0.0891,-0.3633,-10.6517,-11.0123
9008,-0.0002,-0.0082,9.8015,0.0033,0.3756,-0.1797,-0.3594,-10.6170,-10.9756
9016,-0.0015,-0.0112,9.7997,0.0029,0.2827,-0.1917,-0.3565,-10.5850,-10.9371
9024,0.0019,-0.0079,9.7939,-0.0082,0.2365,-0.2138,-0.3536,-10.5531,-10.8986
9032,-0.0027,-0.0081,9.8004,0.0266,0.2431,-0.1790,-0.3502,-10.5208,-10.8634
9040,0.0021,-0.0170,9.8132,0.0332,0.1666,-0.1243,-0.3468,-10.4886,-10.8284
9048,-0.0025,-0.0218,9.8121,0.0528,0.1415,-0.0854,-0.3434,-10.4566,-10.7934
9056,-0.0077,-0.0194,9.8033,0.0849,0.1575,-0.1095,-0.3375,-10.4220,-10.7571
9064,-0.0114,-0.0249,9.8053,0.0729,0.1542,-0.1299,-0.3367,-10.3918,-10.7224
9072,-0.0103,-0.0285,9.7962,0.0775,0.1083,-0.2667,-0.3334,-10.3574,-10.6878
9080,-0.0083,-0.0245,9.8012,0.0738,0.0591,-0.2855,-0.3301,-10.3233,-10.6534
9088,-0.0029,-0.0250,9.8117,0.0943,0.0574,-0.2902,-0.3299,-10.2965,-10.6180
9096,0.0029,-0.0168,9.8207,0.1033,-0.0163,-0.3267,-0.3281,-10.2625,-10.5838
9104,-0.0150,-0.0152,9.8238,0.1518,-0.0707,-0.1989,-0.3269,-10.2292,-10.5487
9112,-0.0158,-0.0084,9.8139,0.1716,-0.0587,-0.2580,-0.3257,-10.2001,-10.5137
9120,-0.0261,-0.0008,9.8040,0.1665,-0.0633,-0.1119,-0.3245,-10.1712,-10.4789
9128,-0.0335,-0.0090,9.7923,0.1136,0.0150,-0.1242,-0.3217,-10.1397,-10.4467
9136,-0.0330,-0.0105,9.8027,0.0817,-0.0088,-0.1653,-0.3200,-10.1048,-10.4132
9144,-0.0366,-0.0100,9.7930,0.0512,-0.0129,-0.1965,-0.3110,-10.0736,-10.3812
9152,-0.0312,-0.0160,9.8015,0.1341,0.0259,-0.2131,-0.3021,-10.0425,-10.3494
9160,-0.0364,-0.0095,9.8055,0.1066,-0.0704,-0.2423,-0.2932,-10.0115,-10.3177
9168,-0.0415,-0.0051,9.7991,0.0963,-0.0638,-0.1849,-0.2941,-9.9796,-10.2830
9176,-0.0311,-0.0033,9.7847,0.0892,-0.0735,-0.2766,-0.2951,-9.9478,-10.2485
9184,-0.0244,-0.0081,9.7940,0.1037,-0.1094,-0.2630,-0.2950,-9.9146,-10.2146
9192,-0.0111,-0.0146,9.7924,0.0722,-0.1251,-0.3193,-0.2950,-9.8815,-10.1807
9200,-0.0159,-0.0147,9.7937,0.1062,-0.1401,-0.2959,-0.2949,-9.8485,-10.1471
9208,-0.0066,-0.0152,9.8026,0.1279,-0.1251,-0.2334,-0.2958,-9.8172,-10.1104
9216,-0.0054,-0.0220,9.8056,0.1087,-0.1401,-0.1311,-0.2932,-9.7870,-10.0759
9224,0.0002,-0.0232,9.8133,0.1010,-0.1864,-0.1478,-0.2895,-9.7554,-10.0405
9232,-0.0039,-0.0201,9.8058,0.0590,-0.2147,-0.0865,-0.2859,-9.7239,-10.0053
9240,-0.0011,-0.0160,9.8012,0.0749,-0.1351,-0.0519,-0.2874,-9.6899,-9.9712
9248,0.0036,-0.0091,9.8016,0.0127,-0.1257,-0.0455,-0.2827,-9.6586,-9.9336
9256,0.0024,-0.0028,9.8020,0.0572,-0.1967,-0.0180,-0.2796,-9.6295,-9.9018
9264,0.0055,-0.0008,9.8024,-0.0043,-0.1605,-0.0957,-0.2781,-9.6005,-9.8675
9272,0.0009,-0.0017,9.8009,0.0383,-0.1473,-0.0527,-0.2765,-9.5716,-9.8334
9280,-0.0064,0.0043,9.8045,0.0124,-0.1294,-0.0969,-0.2709,-9.5403,-9.8019
9288,-0.0089,0.0056,9.7964,-0.0231,-0.1575,-0.2032,-0.2652,-9.5090,-9.7706
9296,-0.0107,-0.0073,9.7937,0.0363,-0.0804,-0.2114,-0.2637,-9.4846,-9.7394
9304,-0.0151,-0.0080,9.7971,0.0532,-0.1160,-0.2300,-0.2622,-9.4602,-9.7082
9312,-0.0209,-0.0105,9.8088,0.0159,-0.0194,-0.2878,-0.2608,-9.4359,-9.6772
9320,-0.0115,-0.0173,9.8117,-0.0144,-0.0977,-0.2577,-0.2593,-9.4035,-9.6463
9328,-0.0167,-0.0085,9.8071,-0.0034,-0.1486,-0.3436,-0.2578,-9.3712,-9.6155
9336,-0.0169,-0.0050,9.8097,0.0659,-0.1412,-0.3431,-0.2538,-9.3405,-9.5833
9344,-0.0238,-0.0037,9.7956,0.0227,-0.1688,-0.3586,-0.2498,-9.3110,-9.5486
9352,-0.0206,-0.0075,9.7843,0.0081,-0.2139,-0.2721,-0.2458,-9.2816,-9.5141
9360,-0.0249,-0.0087,9.7854,-0.0031,-0.2464,-0.2533,-0.2428,-9.2554,-9.4863
9368,-0.0166,-0.0120,9.7814,0.0234,-0.2801,-0.2488,-0.2476,-9.2277,-9.4570
9376,-0.0208,-0.0128,9.7778,-0.0206,-0.2830,-0.1804,-0.2477,-9.1971,-9.4259
9384,-0.0069,-0.0139,9.7745,-0.0279,-0.3017,-0.2430,-0.2422,-9.1655,-9.3948
9392,-0.0021,-0.0013,9.7893,-0.0616,-0.2503,-0.2522,-0.2367,-9.1341,-9.3623
9400,-0.0036,0.0001,9.7918,-0.0779,-0.1585,-0.2237,-0.2379,-9.1093,-9.3300
9408,0.0136,-0.0013,9.7954,-0.1360,-0.1667,-0.1057,-0.2324,-9.0796,-9.3003
9416,0.0097,0.0060,9.8000,-0.1437,-0.1826,-0.1289,-0.2285,-9.0485,-9.2707
9424,0.0061,-0.0024,9.7978,-0.1563,-0.2830,-0.0711,-0.2246,-9.0175,-9.2412
9432,0.0147,0.0023,9.7963,-0.1338,-0.1871,-0.0585,-0.2212,-8.9937,-9.2097
9440,0.0088,0.0066,9.7972,-0.1095,-0.1488,-0.0918,-0.2179,-8.9700,-9.1784
9448,0.0040,-0.0050,9.8026,-0.1130,-0.0614,-0.0596,-0.2181,-8.9428,-9.1507
9456,0.0137,-0.0028,9.8038,-0.0470,-0.0872,-0.0395,-0.2183,-8.9157,-9.1232
9464,0.0193,0.0060,9.8035,-0.0825,-0.0265,-0.0576,-0.2185,-8.8887,-9.0957
9472,0.0239,-0.0010,9.8083,-0.1005,0.0395,-0.0989,-0.2162,-8.8577,-9.0658
9480,0.0203,-0.0014,9.8185,-0.0564,0.1480,-0.1011,-0.2139,-8.8268,-9.0360
9488,0.0153,0.0009,9.8022,-0.0168,0.2650,0.0061,-0.2116,-8.8012,-9.0088
9496,0.0135,0.0021,9.7998,-0.0457,0.3663,0.0100,-0.2077,-8.7725,-8.9802
9504,0.0136,0.0187,9.7986,-0.0493,0.3618,-0.0129,-0.2039,-8.7440,-8.9517
9512,-0.0026,0.0232,9.7942,-0.0127,0.3842,0.0692,-0.2052,-8.7181,-8.9243
9520,-0.0005,0.0073,9.7808,-0.0178,0.3203,0.0436,-0.2009,-8.6903,-8.8950
9528,0.0005,0.0079,9.7827,-0.0092,0.2938,0.0432,-0.1977,-8.6641,-8.8647
9536,-0.0085,0.0089,9.7880,-0.0358,0.2605,-0.0238,-0.1974,-8.6359,-8.8366
9544,-0.0063,0.0130,9.7888,-0.1091,0.2446,-0.0346,-0.1972,-8.6079,-8.8086
9552,-0.0115,0.0071,9.7827,-0.1233,0.2348,0.0244,-0.1965,-8.5819,-8.7812
9560,-0.0040,0.0014,9.7812,-0.1368,0.1694,0.1341,-0.1963,-8.5581,-8.7544
9568,-0.0099,-0.0029,9.7849,-0.2778,0.2588,0.2098,-0.1961,-8.5344,-8.7276
9576,-0.0039,0.0009,9.7924,-0.2819,0.2270,0.3114,-0.1929,-8.5062,-8.6990
9584,-0.0016,-0.0038,9.7936,-0.2805,0.2100,0.1953,-0.1896,-8.4781,-8.6704
9592,0.0027,-0.0040,9.8057,-0.2791,0.0977,0.2389,-0.1864,-8.4501,-8.6420
9600,0.0039,-0.0005,9.8075,-0.2885,0.1183,0.1207,-0.1837,-8.4201,-8.6172
9608,-0.0005,-0.0032,9.8151,-0.2815,0.0739,0.1195,-0.1810,-8.3903,-8.5924
9616,-0.0049,-0.0039,9.8147,-0.2908,0.0689,0.0545,-0.1784,-8.3606,-8.5678
9624,-0.0007,-0.0159,9.8088,-0.3450,0.0241,0.1203,-0.1752,-8.3300,-8.5376
9632,0.0044,-0.0108,9.8090,-0.3702,0.1252,0.1005,-0.1720,-8.3025,-8.5122
9640,-0.0023,-0.0126,9.8059,-0.3436,0.1153,0.0896,-0.1664,-8.2761,-8.4832
9648,-0.0107,-0.0165,9.8032,-0.3128,0.1351,0.0765,-0.1663,-8.2503,-8.4549
9656,-0.0082,-0.0182,9.8048,-0.3394,0.1141,-0.0587,-0.1662,-8.2246,-8.4267
9664,-0.0051,-0.0279,9.7989,-0.2848,0.2006,-0.0839,-0.1631,-8.1975,-8.3981
9672,-0.0100,-0.0322,9.7964,-0.3206,0.1287,-0.0921,-0.1605,-8.1695,-8.3726
9680,-0.0194,-0.0260,9.8014,-0.2615,-0.0121,-0.0066,-0.1579,-8.1441,-8.3446
9688,-0.0166,-0.0322,9.7981,-0.3490,-0.0053,0.0006,-0.1578,-8.1162,-8.3158
9696,-0.0181,-0.0274,9.7907,-0.3180,-0.0149,0.0660,-0.1577,-8.0885,-8.2870
9704,-0.0136,-0.0222,9.7966,-0.3017,0.0826,0.0540,-0.1526,-8.0648,-8.2619
9712,-0.0059,-0.0119,9.7998,-0.2461,0.0665,0.1491,-0.1506,-8.0382,-8.2328
9720,-0.0180,-0.0054,9.7999,-0.2409,-0.0129,0.0294,-0.1485,-8.0118,-8.2039
9728,-0.0235,-0.0154,9.8055,-0.1987,-0.0221,0.0723,-0.1465,-7.9879,-8.1700
9736,-0.0193,-0.0036,9.8050,-0.2249,-0.0949,0.0120,-0.1444,-7.9641,-8.1362
9744,-0.0197,0.0022,9.8055,-0.1967,-0.1806,0.1383,-0.1424,-7.9404,-8.1026
9752,-0.0155,0.0074,9.8083,-0.2203,-0.2305,0.1177,-0.1429,-7.9178,-8.0826
9760,-0.0025,0.0061,9.8121,-0.1789,-0.2622,0.0847,-0.1434,-7.8952,-8.0626
9768,-0.0077,-0.0018,9.8065,-0.1420,-0.2952,0.0345,-0.1413,-7.8727,-8.0352
9776,-0.0051,-0.0013,9.8073,-0.1254,-0.1801,-0.0935,-0.1393,-7.8503,-8.0079
9784,-0.0109,0.0093,9.7994,-0.1042,-0.2007,-0.1226,-0.1398,-7.8295,-7.9807
9792,-0.0111,0.0142,9.8183,-0.1719,-0.1271,-0.2650,-0.1373,-7.8082,-7.9566
9800,-0.0164,0.0032,9.8093,-0.1647,-0.1153,-0.1879,-0.1343,-7.7796,-7.9331
9808,-0.0088,0.0029,9.8081,-0.1604,-0.1361,-0.1996,-0.1358,-7.7555,-7.9097
9816,-0.0052,0.0021,9.8078,-0.0896,-0.0786,-0.2000,-0.1373,-7.7315,-7.8783
9824,-0.0001,-0.0050,9.8044,-0.0913,-0.0529,-0.2697,-0.1374,-7.7131,-7.8535
9832,0.0028,0.0068,9.7936,-0.0236,-0.0524,-0.1925,-0.1354,-7.6877,-7.8259
9840,0.0126,0.0065,9.7875,-0.0628,-0.0039,-0.2519,-0.1304,-7.6605,-7.8038
9848,0.0178,0.0117,9.7956,-0.0177,-0.0376,-0.3274,-0.1254,-7.6333,-7.7818
9856,0.0258,0.0069,9.7893,0.0282,-0.0431,-0.4342,-0.1250,-7.6107,-7.7518
9864,0.0261,0.0080,9.7845,0.0507,-0.0217,-0.4644,-0.1200,-7.5887,-7.7275
9872,0.0351,0.0195,9.7837,0.0269,-0.0785,-0.4292,-0.1151,-7.5668,-7.7033
9880,0.0296,0.0207,9.7849,0.0388,-0.1409,-0.3156,-0.1147,-7.5429,-7.6736
9888,0.0318,0.0191,9.7851,-0.0192,-0.1179,-0.3590,-0.1143,-7.5191,-7.6441
9896,0.0325,0.0168,9.7884,-0.0613,-0.0478,-0.4351,-0.1139,-7.4955,-7.6146
9904,0.0300,0.0178,9.7964,-0.0402,-0.0182,-0.4013,-0.1115,-7.4738,-7.5883
9912,0.0254,0.0202,9.8009,-0.0093,0.0314,-0.4969,-0.1091,-7.4523,-7.5620
9920,0.0221,0.0196,9.8110,-0.0279,0.0283,-0.4550,-0.1092,-7.4268,-7.5383
9928,0.0201,0.0112,9.8155,-0.0749,0.0546,-0.4336,-0.1093,-7.4015,-7.5147
9936,0.0228,0.0201,9.8182,-0.0639,0.1144,-0.4585,-0.1084,-7.3817,-7.4921
9944,0.0093,0.0081,9.8147,-0.0694,0.0782,-0.3596,-0.1075,-7.3580,-7.4731
9952,0.0035,0.0146,9.8180,0.0001,0.1050,-0.3050,-0.1056,-7.3348,-7.4487
9960,0.0083,0.0163,9.8100,0.0345,0.1093,-0.3035,-0.1057,-7.3113,-7.4229
9968,-0.0052,0.0192,9.8000,-0.0366,0.0600,-0.2274,-0.1058,-7.2878,-7.3972
9976,-0.0119,0.0164,9.8033,-0.0273,0.0503,-0.2693,-0.1064,-7.2639,-7.3721
9984,-0.0121,0.0171,9.8003,0.0643,-0.0204,-0.3120,-0.1071,-7.2411,-7.3520
9992,-0.0099,0.0154,9.7899,0.0212,-0.0053,-0.2356,-0.1052,-7.2173,-7.3280
10000,-0.0080,0.0102,9.7887,-0.0413,-0.0842,-0.1971,-0.1033,-7.1937,-7.3041
10008,-0.0008,0.0046,9.7885,-0.0717,-0.0157,-0.1390,-0.1015,-7.1701,-7.2803
10016,0.0062,-0.0073,9.7860,-0.0049,-0.0594,-0.1234,-0.0986,-7.1491,-7.2556
10024,0.0075,-0.0167,9.7874,-0.0529,-0.0560,-0.0978,-0.0958,-7.1281,-7.2309
10032,0.0046,-0.0061,9.7882,-0.0802,-0.0473,-0.0787,-0.0875,-7.1093,-7.2068
10040,-0.0012,-0.0074,9.7799,-0.1569,-0.0444,0.0222,-0.0793,-7.0904,-7.1828
10048,0.0103,0.0028,9.7760,-0.1770,-0.0523,0.0334,-0.0711,-7.0717,-7.1589
10056,0.0126,0.0125,9.7833,-0.1135,-0.0251,0.1401,-0.0703,-7.0515,-7.1351
10064,0.0065,0.0171,9.7991,-0.1968,-0.1245,0.0155,-0.0701,-7.0294,-7.1109
10072,0.0173,0.0154,9.7893,-0.2178,-0.1315,0.0083,-0.0654,-7.0078,-7.0862
10080,0.0162,0.0203,9.7927,-0.2245,-0.0796,0.0414,-0.0607,-6.9864,-7.0616
10088,0.0029,0.0174,9.7880,-0.1937,-0.0352,0.0065,-0.0605,-6.9645,-7.0366
10096,0.0009,0.0147,9.7865,-0.0948,-0.0248,0.0263,-0.0568,-6.9427,-7.0162
10104,-0.0073,0.0201,9.7774,-0.1176,-0.0869,0.0694,-0.0566,-6.9210,-6.9973
10112,-0.0120,0.0190,9.7778,-0.1794,-0.0849,0.0012,-0.0570,-6.8998,-6.9779
