Timestamp_ms,AccX_Filt,AccY_Filt,AccZ_Filt,GyrX_Filt,GyrY_Filt,GyrZ_Filt,MagX_Filt,MagY_Filt,MagZ_Filt
5233,-0.0628,0.0278,9.7334,0.5676,-2.1983,-1.8008,3.2400,-59.8050,-60.7500
5240,0.0039,0.0304,9.7569,-0.0094,-0.4686,-0.7398,3.3773,-62.3396,-63.3247
5248,0.0167,-0.0496,9.7778,0.3267,0.5993,-1.0156,3.8961,-62.7882,-64.1693
5256,0.0158,-0.0543,9.7884,0.4187,0.7976,-1.9206,4.1515,-62.8616,-64.4416
5264,0.0092,-0.0419,9.7989,0.4617,1.0034,-1.4790,4.2397,-63.0751,-64.5381
5272,0.0090,-0.0336,9.8129,0.0355,0.7378,-1.5661,4.2922,-63.1151,-64.4971
5280,0.0235,-0.0160,9.8116,0.1138,0.6366,-1.2178,4.3241,-63.0556,-64.3776
5288,0.0220,-0.0158,9.8147,0.1886,0.7574,-1.0894,4.4539,-62.8232,-64.0063
5296,0.0163,-0.0209,9.8172,0.1339,0.6961,-1.1376,4.5504,-62.5745,-63.6483
5304,0.0026,-0.0153,9.8204,0.1156,0.7048,-1.2150,4.4304,-62.4927,-63.5227
5312,0.0027,-0.0112,9.8179,0.0591,0.5580,-1.2610,4.3282,-62.3711,-63.3645
5320,-0.0055,-0.0271,9.8258,0.0777,0.3250,-1.1840,4.3386,-62.1332,-62.9963
5328,0.0009,-0.0210,9.8170,0.1347,0.1111,-0.9898,4.2985,-61.9550,-62.7071
5336,0.0084,-0.0322,9.8099,0.1451,0.1156,-0.6573,4.0914,-61.8028,-62.3530
5344,0.0079,-0.0365,9.8170,0.1542,0.1886,-0.4592,4.0984,-61.4433,-62.0465
5352,0.0124,-0.0466,9.8236,0.1535,0.0952,-0.4073,4.1026,-61.0924,-61.7418
5360,0.0203,-0.0429,9.8163,0.1528,0.1883,-0.3403,4.0342,-60.8368,-61.4566
5368,0.0258,-0.0348,9.8112,0.1320,0.1024,-0.4092,3.9964,-60.6031,-61.1962
5376,0.0107,-0.0328,9.8096,0.1794,0.0600,-0.4907,3.9060,-60.4116,-60.8862
5384,0.0067,-0.0277,9.8129,0.1321,-0.0650,-0.3012,3.8977,-60.1741,-60.5196
5392,0.0036,-0.0265,9.8182,0.1693,-0.0035,-0.5120,3.8887,-59.9330,-60.1616
5400,0.0087,-0.0258,9.8224,0.2353,0.0811,-0.4846,3.9132,-59.7026,-59.8657
5408,0.0003,-0.0243,9.8128,0.3167,0.1346,-0.3658,3.9342,-59.4689,-59.5720
5416,0.0066,-0.0327,9.8087,0.2935,0.0755,-0.2191,3.9336,-59.1762,-59.2742
5424,0.0091,-0.0407,9.7972,0.2123,0.2466,-0.3355,3.9318,-58.8857,-58.9790
5432,0.0141,-0.0442,9.7993,0.2445,0.2489,-0.3068,3.9291,-58.5974,-58.6863
5440,0.0053,-0.0483,9.8090,0.2200,0.2607,-0.3761,3.8867,-58.3334,-58.3572
5448,-0.0045,-0.0492,9.8127,0.2034,0.2087,-0.3903,3.8676,-58.0378,-58.0707
5456,0.0031,-0.0464,9.8078,0.2656,0.2843,-0.4254,3.8541,-57.7760,-57.8018
5464,0.0073,-0.0457,9.8047,0.2411,0.2908,-0.3601,3.8005,-57.4599,-57.5191
5472,0.0024,-0.0455,9.7964,0.2423,0.2787,-0.3624,3.7495,-57.1480,-57.2384
5480,0.0034,-0.0380,9.7913,0.2644,0.1324,-0.2298,3.7289,-56.8824,-56.9411
5488,-0.0012,-0.0303,9.7971,0.2081,0.1342,-0.2948,3.7042,-56.6089,-56.6651
5496,0.0052,-0.0280,9.8042,0.2285,0.2181,-0.1679,3.6890,-56.3505,-56.3910
5504,0.0151,-0.0404,9.8133,0.2245,0.1371,-0.2114,3.6739,-56.0931,-56.1189
5512,0.0117,-0.0412,9.8152,0.2901,0.1964,-0.2265,3.6130,-55.8117,-55.8528
5520,0.0068,-0.0337,9.8074,0.2659,0.1923,-0.1115,3.5994,-55.5897,-55.5721
5528,0.0088,-0.0415,9.8066,0.2431,0.1283,-0.2224,3.5976,-55.3354,-55.3057
5536,0.0092,-0.0399,9.8087,0.2100,0.1075,-0.0749,3.5953,-55.0824,-55.0412
5544,0.0078,-0.0384,9.8119,0.2691,0.0962,-0.0931,3.5924,-54.8305,-54.7784
5552,0.0028,-0.0448,9.8039,0.3167,0.1558,-0.0936,3.5817,-54.5652,-54.5100
5560,0.0020,-0.0415,9.8090,0.3339,0.2179,-0.0912,3.5710,-54.3018,-54.2436
5568,-0.0024,-0.0486,9.8113,0.2807,0.2546,-0.1223,3.5392,-54.0543,-53.9863
5576,-0.0037,-0.0499,9.8088,0.1856,0.2674,-0.1936,3.5082,-53.8081,-53.7307
5584,-0.0007,-0.0534,9.8007,0.2114,0.1136,-0.3111,3.4781,-53.5631,-53.4767
5592,-0.0053,-0.0484,9.8006,0.1862,0.0195,-0.4010,3.4586,-53.3194,-53.2146
5600,-0.0045,-0.0502,9.7996,0.2558,-0.1359,-0.4727,3.4490,-53.0897,-52.9512
5608,0.0027,-0.0414,9.7973,0.1740,-0.0784,-0.5164,3.4488,-52.8357,-52.7120
5616,0.0005,-0.0221,9.8035,0.1808,-0.1138,-0.4130,3.4450,-52.5958,-52.4340
5624,-0.0001,-0.0268,9.8063,0.1273,-0.0711,-0.3309,3.4409,-52.3571,-52.1588
5632,0.0180,-0.0280,9.8134,0.0218,-0.1176,-0.2390,3.4306,-52.0931,-51.9189
5640,0.0171,-0.0258,9.8103,-0.0299,-0.0341,-0.2628,3.4406,-51.8140,-51.6833
5648,0.0135,-0.0244,9.8124,-0.0846,-0.1093,-0.2394,3.4384,-51.6205,-51.4462
5656,0.0130,-0.0253,9.8112,-0.0745,-0.1592,-0.1682,3.4331,-51.3876,-51.2132
5664,0.0112,-0.0248,9.8038,-0.1568,-0.1934,-0.2682,3.4276,-51.1559,-50.9816
5672,0.0050,-0.0152,9.8075,-0.1381,-0.2314,-0.1824,3.4218,-50.9255,-50.7512
5680,-0.0061,-0.0197,9.8067,-0.1094,-0.2623,-0.2221,3.3947,-50.6751,-50.5168
5688,-0.0051,-0.0211,9.8070,-0.0308,-0.3430,-0.1575,3.3681,-50.4267,-50.2839
5696,0.0052,-0.0292,9.8040,-0.0366,-0.3069,-0.1254,3.3574,-50.1699,-50.0550
5704,-0.0063,-0.0365,9.8122,0.0145,-0.3129,-0.0840,3.3468,-49.9154,-49.8274
5712,-0.0076,-0.0285,9.8206,-0.0094,-0.3481,-0.1951,3.3362,-49.6631,-49.6012
5720,-0.0207,-0.0340,9.8264,0.0430,-0.3441,-0.1453,3.3475,-49.4496,-49.3837
5728,-0.0147,-0.0464,9.8193,0.0689,-0.3162,-0.1220,3.3293,-49.2178,-49.1744
5736,-0.0089,-0.0388,9.8128,0.0588,-0.3485,-0.1318,3.3113,-48.9875,-48.9661
5744,-0.0127,-0.0361,9.8157,0.0464,-0.3687,-0.1037,3.2983,-48.7705,-48.7422
5752,-0.0112,-0.0482,9.8274,0.0212,-0.3853,-0.0634,3.2692,-48.5730,-48.5198
5760,-0.0230,-0.0441,9.8234,-0.0270,-0.2966,-0.0571,3.2406,-48.3648,-48.2919
5768,-0.0300,-0.0368,9.8156,-0.0008,-0.2413,-0.0805,3.2193,-48.1418,-48.0857
5776,-0.0628,-0.0324,9.8128,0.0779,-0.2849,-0.2234,3.1983,-47.9203,-47.8805
5784,-0.1667,-0.0030,9.8147,0.0112,-0.3105,-0.2824,3.1777,-47.7003,-47.6436
5792,-0.1464,-0.0119,9.8174,0.0250,-0.2921,-0.1915,3.1680,-47.4880,-47.4236
5800,-0.1276,-0.0181,9.8198,0.0570,-0.2907,-0.0325,3.1584,-47.2769,-47.2050
5808,-0.1393,-0.0101,9.8347,0.1143,-0.2946,0.0019,3.1550,-47.0879,-46.9837
5816,-0.1471,-0.0164,9.8441,0.1530,-0.2208,-0.1390,3.1515,-46.8995,-46.7639
5824,-0.1360,-0.0095,9.8340,0.2034,-0.2144,-0.1214,3.1478,-46.7118,-46.5456
5832,-0.1286,-0.0100,9.8303,0.2194,-0.2056,-0.1045,3.1319,-46.5227,-46.3368
5840,-0.0823,-0.0269,9.8356,0.2749,-0.1491,-0.2487,3.1161,-46.3343,-46.1292
5848,-0.0646,-0.0330,9.8362,0.1917,-0.1860,-0.2984,3.0967,-46.1330,-45.9248
5856,-0.0713,-0.0331,9.8432,0.2029,-0.1971,-0.3353,3.0774,-45.9327,-45.7216
5864,-0.0560,-0.0387,9.8364,0.1469,-0.1865,-0.4266,3.0661,-45.7316,-45.5215
5872,-0.0376,-0.0364,9.8201,0.1761,-0.2243,-0.4978,3.0624,-45.5241,-45.3244
5880,-0.0432,-0.0449,9.8337,0.1400,-0.1510,-0.5232,3.0380,-45.3160,-45.1264
5888,-0.0379,-0.0334,9.8391,0.1081,-0.0997,-0.4407,3.0362,-45.1129,-44.9296
5896,-0.0417,-0.0366,9.8422,0.0376,-0.0025,-0.4046,3.0341,-44.9110,-44.7339
5904,-0.0428,-0.0446,9.8513,0.0743,-0.0030,-0.2552,3.0157,-44.7086,-44.5321
5912,-0.0790,-0.0427,9.8587,0.0826,0.0259,-0.2912,2.9833,-44.5145,-44.3350
5920,-0.0716,-0.0296,9.8659,0.0560,-0.0266,-0.3630,2.9796,-44.3145,-44.1444
5928,-0.0913,-0.0095,9.8564,0.0411,0.0700,-0.2716,2.9758,-44.1157,-43.9549
5936,-0.0827,0.0014,9.8601,0.0856,0.1064,-0.2989,2.9650,-43.9025,-43.7612
5944,-0.1160,0.0235,9.8402,0.0775,0.1438,-0.3143,2.9526,-43.7148,-43.5737
5952,-0.1283,0.0271,9.8163,-0.0210,0.1929,-0.3477,2.9402,-43.5282,-43.3873
5960,-0.1280,0.0199,9.8106,0.0476,0.2372,-0.3957,2.9263,-43.3492,-43.2035
5968,-0.1096,0.0284,9.8233,0.0251,0.2422,-0.3935,2.9125,-43.1710,-43.0207
5976,-0.0624,0.0138,9.8256,0.1130,0.2203,-0.4155,2.8988,-42.9937,-42.8389
5984,-0.1008,0.0043,9.8318,0.1036,0.2634,-0.4898,2.8982,-42.8108,-42.6612
5992,-0.0681,0.0029,9.8077,0.2148,0.1232,-0.5369,2.8975,-42.6288,-42.4845
6000,-0.0767,-0.0148,9.8143,0.2490,0.0825,-0.5366,2.8918,-42.4415,-42.3022
6008,-0.0627,0.0016,9.8129,0.2684,0.0730,-0.5603,2.8862,-42.2553,-42.1210
6016,-0.0587,0.0178,9.8212,0.2816,0.0478,-0.5162,2.8679,-42.0748,-41.9298
6024,-0.1161,0.0174,9.8105,0.2249,0.0104,-0.5008,2.8561,-41.8891,-41.7677
6032,-0.1193,0.0576,9.7830,0.2400,0.0147,-0.3980,2.8520,-41.7091,-41.5956
6040,-0.0980,0.0393,9.8028,0.2678,0.0028,-0.4411,2.8434,-41.5332,-41.4166
6048,-0.1221,0.0032,9.8012,0.2784,-0.0060,-0.4183,2.8347,-41.3582,-41.2388
6056,-0.1015,0.0288,9.7760,0.2831,-0.0090,-0.5432,2.8246,-41.1678,-41.0633
6064,-0.0960,0.0123,9.7773,0.1783,-0.0172,-0.5506,2.8056,-40.9948,-40.8978
6072,-0.1353,0.0088,9.7630,0.0808,0.0016,-0.5630,2.7869,-40.8198,-40.7301
6080,-0.1895,0.0029,9.7966,0.1582,-0.0711,-0.5588,2.7684,-40.6458,-40.5632
6088,-0.1183,-0.0279,9.7819,0.1683,-0.1060,-0.3202,2.7501,-40.4728,-40.3972
6096,-0.1217,-0.0673,9.7662,0.1725,-0.1980,-0.1080,2.7348,-40.3007,-40.2320
6104,-0.1476,-0.0513,9.7854,0.1232,-0.1526,0.0123,2.7197,-40.1295,-40.0676
6112,-0.1729,-0.0729,9.7835,0.1881,-0.1492,0.2419,2.7118,-39.9621,-39.8929
6120,-0.1852,-0.0610,9.7509,0.1595,-0.1513,0.3522,2.7039,-39.7956,-39.7192
6128,-0.1664,-0.0589,9.7870,0.2788,-0.0733,0.5483,2.6960,-39.6300,-39.5464
6136,-0.1894,-0.0684,9.7932,0.2756,-0.0334,0.6506,2.6813,-39.4625,-39.3788
6144,-0.1200,-0.0674,9.8111,0.2031,0.0048,0.8416,2.6722,-39.2932,-39.2231
6152,-0.1023,-0.0133,9.8150,0.2139,0.1000,0.9470,2.6671,-39.1330,-39.0518
6160,-0.1059,0.0171,9.8095,0.2721,0.0736,1.0025,2.6620,-38.9736,-38.8816
6168,-0.1461,0.0054,9.8054,0.1118,0.0938,0.9968,2.6596,-38.8150,-38.7123
6176,-0.0995,0.0158,9.8139,0.1612,0.0357,0.8767,2.6611,-38.6572,-38.5375
6184,-0.1858,0.0329,9.7943,0.2591,0.0069,0.8686,2.6493,-38.5028,-38.3703
6192,-0.2193,0.0320,9.7639,0.2861,0.0086,0.8048,2.6545,-38.3348,-38.2118
6200,-0.1484,0.0161,9.7609,0.3092,-0.0084,0.9624,2.6595,-38.1679,-38.0542
6208,-0.2137,-0.0137,9.7641,0.2833,0.0287,0.9345,2.6554,-38.0173,-37.8910
6216,-0.2422,0.0089,9.7639,0.2985,0.0375,0.9238,2.6513,-37.8674,-37.7288
6224,-0.2475,-0.0280,9.8124,0.3424,0.1126,0.9083,2.6571,-37.7170,-37.5536
6232,-0.2086,0.0006,9.8344,0.4750,0.1284,1.0081,2.6628,-37.5673,-37.3796
6240,-0.2235,0.0005,9.8498,0.4899,0.0875,0.8662,2.6683,-37.4183,-37.2067
6248,-0.1860,0.0291,9.8641,0.4027,0.1710,0.8478,2.6724,-37.2528,-37.0608
6256,-0.1611,0.0846,9.9163,0.4341,0.2109,0.6249,2.6763,-37.0883,-36.9157
6264,-0.1523,0.0856,9.8984,0.3787,0.0704,0.4358,2.6740,-36.9369,-36.7651
6272,-0.1739,0.0537,9.8985,0.3257,0.1387,0.2869,2.6716,-36.7863,-36.6154
6280,-0.2253,0.0289,9.8714,0.4778,0.1453,0.2912,2.6596,-36.6473,-36.4629
6288,-0.2286,0.0065,9.8463,0.4392,0.1704,0.2073,2.6500,-36.5029,-36.3076
6296,-0.2156,0.0031,9.8556,0.4396,0.0236,0.3511,2.6464,-36.3498,-36.1650
6304,-0.2125,-0.0592,9.8612,0.2773,0.0860,0.5499,2.6416,-36.2058,-36.0067
6312,-0.1587,-0.0604,9.8581,0.3514,-0.0171,0.6787,2.6368,-36.0624,-35.8494
6320,-0.1998,-0.0721,9.8639,0.3504,-0.0010,0.8072,2.6249,-35.9152,-35.7010
6328,-0.1722,-0.0334,9.8824,0.3120,-0.0629,0.8608,2.6259,-35.7756,-35.5570
6336,-0.1910,-0.0822,9.8804,0.2086,-0.1301,1.0106,2.6222,-35.6390,-35.4183
6344,-0.2053,-0.0348,9.8809,0.2271,-0.1703,0.9940,2.6184,-35.5030,-35.2803
6352,-0.2492,-0.0798,9.8659,0.1888,-0.1528,1.0847,2.6146,-35.3677,-35.1429
6360,-0.1778,-0.0677,9.8346,0.1441,-0.1708,1.1634,2.6142,-35.2206,-34.9928
6368,-0.2034,-0.0860,9.8486,0.1361,-0.1719,1.3027,2.6136,-35.0743,-34.8435
6376,-0.1509,-0.0423,9.8895,0.0565,-0.1570,1.3559,2.6031,-34.9255,-34.6984
6384,-0.2829,-0.0479,9.8791,0.0416,-0.1935,1.4335,2.5925,-34.7775,-34.5540
6392,-0.0657,-0.0434,9.9052,-0.0126,-0.2603,1.5610,2.5821,-34.6303,-34.4105
6400,-0.0700,-0.0184,9.9326,0.0156,-0.3109,1.4669,2.5826,-34.4861,-34.2732
6408,-0.0817,-0.0176,9.9513,0.0052,-0.3725,1.4783,2.5743,-34.3373,-34.1366
6416,-0.0986,0.0318,9.9597,0.0725,-0.3755,1.5665,2.5802,-34.1893,-33.9954
6424,-0.0534,-0.0255,9.9495,0.1370,-0.3784,1.5068,2.5762,-34.0432,-33.8538
6432,-0.0584,-0.0595,9.9152,0.1293,-0.3731,1.5511,2.5721,-33.8979,-33.7130
6440,-0.0576,-0.0425,9.9411,0.0072,-0.3574,1.6228,2.5638,-33.7662,-33.5740
6448,-0.0668,-0.0518,9.9463,-0.0748,-0.2438,1.6220,2.5556,-33.6214,-33.4389
6456,-0.0232,-0.0228,9.9574,-0.0279,-0.2577,1.5199,2.5526,-33.4858,-33.3067
6464,-0.0466,-0.0220,9.9219,-0.0391,-0.1297,1.4650,2.5495,-33.3509,-33.1751
6472,-0.0482,-0.0496,9.9153,0.0489,-0.0287,1.4631,2.5433,-33.2177,-33.0359
6480,-0.0132,-0.0372,9.9093,0.1224,0.0866,1.5119,2.5351,-33.0894,-32.9036
6488,-0.0467,-0.0223,9.8784,0.2006,0.0742,1.4360,2.5361,-32.9493,-32.7751
6496,-0.0656,-0.0581,9.8604,0.2221,0.1317,1.2807,2.5371,-32.8100,-32.6473
6504,-0.0499,-0.0945,9.8314,0.3494,0.1066,1.2576,2.5379,-32.6715,-32.5201
6512,-0.0785,-0.1279,9.8671,0.3084,0.0560,1.1954,2.5336,-32.5388,-32.3965
6520,-0.0019,-0.1076,9.9062,0.3092,0.0609,1.2160,2.5294,-32.4068,-32.2735
6528,0.0077,-0.0952,9.9166,0.2939,0.1616,1.3210,2.5310,-32.2774,-32.1472
6536,-0.0009,-0.1112,9.8868,0.3940,0.0286,1.5174,2.5327,-32.1487,-32.0214
6544,-0.0032,-0.1508,9.8648,0.2817,0.0267,1.6252,2.5342,-32.0207,-31.8963
6552,-0.0509,-0.1552,9.8591,0.1904,0.0650,1.6750,2.5356,-31.8903,-31.7768
6560,-0.0584,-0.1227,9.8434,0.2096,-0.0265,1.8906,2.5272,-31.7509,-31.6558
6568,-0.0462,-0.0861,9.8274,0.1534,-0.0153,2.0621,2.5285,-31.6142,-31.5355
6576,0.0264,0.0359,9.8289,0.2277,0.1314,1.8501,2.5230,-31.4888,-31.4225
6584,-0.0003,0.0703,9.8548,0.0827,0.0850,1.8394,2.5175,-31.3642,-31.3100
6592,-0.0305,0.1218,9.8177,0.0187,0.1020,1.7198,2.5197,-31.2315,-31.1874
6600,-0.0149,0.1116,9.8150,0.1948,-0.0150,1.6027,2.5161,-31.1033,-31.0665
6608,0.0160,0.1123,9.8564,0.1232,0.1103,1.5948,2.5153,-30.9758,-30.9413
6616,0.0080,0.0050,9.8524,0.1188,0.1449,1.5979,2.5135,-30.8594,-30.8206
6624,0.0317,-0.0288,9.8638,0.0852,0.1513,1.7609,2.5116,-30.7435,-30.7005
6632,-0.0366,-0.0726,9.8508,0.1571,0.0800,1.7114,2.5098,-30.6282,-30.5810
6640,-0.0988,-0.1168,9.8460,0.1138,0.0759,1.6988,2.5079,-30.5059,-30.4621
6648,-0.1574,-0.0934,9.8037,0.0858,0.0746,1.7293,2.5059,-30.3843,-30.3438
6656,-0.1444,-0.0450,9.8106,0.0377,-0.1586,1.6412,2.5169,-30.2633,-30.2261
6664,-0.1681,-0.0202,9.7991,-0.1257,-0.0616,1.7463,2.5276,-30.1410,-30.1135
6672,-0.2005,0.0217,9.7923,-0.0899,0.0365,1.6228,2.5382,-30.0193,-30.0015
6680,-0.1214,0.0419,9.8108,-0.1544,0.1249,1.6620,2.5339,-29.8947,-29.8891
6688,-0.1888,0.0256,9.8348,-0.1200,0.2362,1.7555,2.5387,-29.7734,-29.7727
6696,-0.1058,0.0003,9.8456,-0.0685,-0.0095,1.7915,2.5433,-29.6527,-29.6569
6704,-0.2152,-0.0071,9.7961,-0.0139,0.1183,1.8234,2.5371,-29.5371,-29.5390
6712,-0.2099,-0.0270,9.7851,-0.0843,0.1739,1.7552,2.5317,-29.4204,-29.4252
6720,-0.1978,-0.0572,9.7892,-0.1197,0.2670,1.7539,2.5316,-29.3015,-29.3066
6728,-0.2041,-0.0701,9.7824,-0.1162,0.3213,1.6727,2.5439,-29.1885,-29.1940
6736,-0.1151,-0.0516,9.7722,-0.0142,0.4053,1.7204,2.5560,-29.0761,-29.0819
6744,-0.0861,0.0448,9.7953,0.0141,0.3683,1.6514,2.5608,-28.9598,-28.9687
6752,-0.0921,0.0482,9.7702,-0.1749,0.5223,1.5080,2.5576,-28.8459,-28.8621
6760,-0.1044,0.0240,9.7831,-0.1477,0.5495,1.3896,2.5543,-28.7325,-28.7560
6768,-0.0450,0.0148,9.7933,-0.1083,0.3701,1.4443,2.5483,-28.6223,-28.6417
6776,-0.0486,0.0302,9.8030,-0.1479,0.3507,1.4140,2.5424,-28.5126,-28.5280
6784,-0.0409,0.0487,9.7672,-0.2018,0.3054,1.2570,2.5364,-28.4034,-28.4148
6792,-0.0275,0.0444,9.7452,-0.1521,0.3447,1.2269,2.5390,-28.2948,-28.3083
6800,0.0424,0.0944,9.7477,-0.1791,0.2757,1.1154,2.5414,-28.1867,-28.2022
6808,-0.0192,0.0416,9.7549,-0.1437,0.1190,1.0702,2.5404,-28.0739,-28.0941
6816,0.0299,-0.0021,9.7482,-0.2058,0.0012,1.0695,2.5393,-27.9618,-27.9865
6824,-0.0386,-0.0306,9.7144,-0.1718,0.0459,1.1223,2.5390,-27.8442,-27.8760
6832,-0.0556,-0.0446,9.7389,-0.2194,0.1766,1.1754,2.5419,-27.7416,-27.7695
6840,-0.0513,-0.0258,9.7752,-0.2515,0.2216,1.3168,2.5364,-27.6370,-27.6652
6848,-0.0188,0.0021,9.7926,-0.3595,0.2139,1.3401,2.5392,-27.5245,-27.5613
6856,-0.0622,-0.0269,9.8051,-0.4629,0.2493,1.3303,2.5419,-27.4125,-27.4580
6864,0.0037,0.0048,9.7977,-0.3644,0.2191,1.4143,2.5446,-27.3077,-27.3576
6872,-0.0300,0.0425,9.7888,-0.2541,0.2329,1.3000,2.5372,-27.2010,-27.2552
6880,0.0110,0.0612,9.8026,-0.2154,0.1821,1.4093,2.5396,-27.0989,-27.1557
6888,-0.0002,0.0508,9.8128,-0.1357,0.2508,1.1726,2.5420,-26.9972,-27.0567
6896,-0.0413,0.0085,9.7974,-0.0595,0.2792,1.1008,2.5443,-26.8961,-26.9582
6904,-0.0502,-0.0047,9.8040,-0.1200,0.2744,1.0775,2.5457,-26.7946,-26.8610
6912,-0.0210,0.0067,9.8414,0.0062,0.3711,0.9886,2.5471,-26.6935,-26.7641
6920,-0.0583,-0.0127,9.8438,0.1429,0.1489,1.1328,2.5426,-26.5929,-26.6677
6928,-0.0064,-0.0220,9.8943,0.2123,0.0138,1.3615,2.5382,-26.4928,-26.5718
6936,-0.0132,-0.0204,9.8743,0.1639,0.0019,1.4575,2.5337,-26.3932,-26.4763
6944,-0.0052,-0.0090,9.8586,0.0670,0.1132,1.5092,2.5356,-26.2908,-26.3780
6952,-0.0203,-0.0155,9.8534,0.0277,0.2276,1.4361,2.5406,-26.1841,-26.2810
6960,0.0043,-0.0892,9.8529,0.1501,0.1664,1.3421,2.5416,-26.0835,-26.1772
6968,-0.0072,-0.0503,9.8537,0.1445,0.0518,1.3376,2.5425,-25.9834,-26.0740
6976,-0.0385,-0.0050,9.8855,0.0698,-0.0471,1.2960,2.5377,-25.8822,-25.9847
6984,-0.0983,0.0159,9.8659,-0.0576,-0.0590,1.2881,2.5417,-25.7846,-25.8871
6992,-0.1050,-0.0148,9.7799,0.0045,-0.0303,1.2913,2.5353,-25.6812,-25.7916
7000,-0.1065,-0.0062,9.8556,-0.0321,-0.2403,1.1850,2.5359,-25.5775,-25.6918
7008,-0.1539,-0.0193,9.8070,-0.0591,-0.3104,1.3954,2.5365,-25.4743,-25.5924
7016,-0.1608,-0.0913,9.8842,0.1471,-0.1855,1.5859,2.5324,-25.3661,-25.4983
7024,-0.1902,-0.0586,9.9650,0.2323,-0.1300,1.3707,2.5337,-25.2686,-25.4030
7032,-0.2242,-0.0863,9.9693,0.3751,-0.1489,1.5170,2.5388,-25.1739,-25.3096
7040,-0.1360,0.0029,9.9595,0.3490,-0.1670,1.5795,2.5438,-25.0796,-25.2168
7048,-0.1737,0.0017,9.9266,0.3853,-0.2403,1.5699,2.5486,-24.9858,-25.1243
7056,-0.1318,0.0028,9.9172,0.4467,-0.3638,1.4968,2.5580,-24.8870,-25.0330
7064,-0.0761,-0.0103,9.8650,0.5935,-0.4445,1.3575,2.5672,-24.7887,-24.9421
7072,-0.0576,0.0166,9.8975,0.4671,-0.3937,1.2590,2.5619,-24.6932,-24.8502
7080,-0.0928,-0.1016,9.8823,0.4690,-0.5451,1.4048,2.5566,-24.5981,-24.7586
7088,-0.1055,-0.0660,9.8781,0.2708,-0.4872,1.5015,2.5535,-24.5027,-24.6630
7096,-0.1197,-0.0325,9.8970,0.2785,-0.4692,1.6740,2.5526,-24.4055,-24.5730
7104,-0.1399,-0.0126,9.9147,0.1953,-0.2706,1.5537,2.5502,-24.3155,-24.4842
7112,-0.2415,-0.0525,9.8992,0.1157,-0.3527,1.5799,2.5492,-24.2192,-24.3936
7120,-0.2651,-0.1049,9.8560,0.0076,-0.3379,1.8903,2.5482,-24.1233,-24.3034
7128,-0.1143,-0.0891,9.8707,-0.0478,-0.4118,1.8938,2.5509,-24.0339,-24.2151
7136,-0.2124,-0.0679,9.8416,0.1392,-0.3490,1.8119,2.5520,-23.9456,-24.1301
7144,-0.2547,-0.1221,9.8303,-0.0206,-0.4517,1.8695,2.5545,-23.8570,-24.0426
7152,-0.1746,-0.0878,9.8397,-0.0320,-0.2379,1.8152,2.5548,-23.7688,-23.9502
7160,-0.2278,-0.1045,9.8177,-0.2004,-0.2308,1.7287,2.5550,-23.6809,-23.8584
7168,-0.2285,-0.1106,9.7745,-0.1000,-0.4427,1.6806,2.5500,-23.5899,-23.7757
7176,-0.2183,-0.0928,9.7806,0.0173,-0.4213,1.6186,2.5450,-23.4992,-23.6934
7184,-0.2336,-0.1159,9.8065,-0.0545,-0.4168,1.7060,2.5400,-23.4046,-23.6064
7192,-0.2288,-0.1332,9.8068,-0.1285,-0.5432,1.9443,2.5349,-23.3104,-23.5197
7200,-0.2035,-0.1110,9.8120,-0.2339,-0.5494,1.9934,2.5299,-23.2167,-23.4335
7208,-0.1888,-0.1365,9.8277,-0.1961,-0.7180,1.9204,2.5299,-23.1256,-23.3548
7216,-0.1510,-0.0853,9.8428,-0.2186,-0.5752,2.0320,2.5299,-23.0349,-23.2765
7224,-0.1508,-0.0481,9.8483,-0.2294,-0.5907,2.0986,2.5327,-22.9489,-23.1920
7232,-0.1270,-0.0158,9.8505,-0.1091,-0.4588,2.2370,2.5355,-22.8634,-23.1080
7240,-0.1214,-0.0162,9.8456,-0.2314,-0.4234,2.1374,2.5339,-22.7682,-23.0271
7248,-0.1669,-0.0038,9.8126,-0.1456,-0.4321,2.0607,2.5365,-22.6835,-22.9473
7256,-0.1330,-0.0099,9.7735,-0.1330,-0.5578,2.0755,2.5348,-22.5948,-22.8707
7264,-0.1145,0.0147,9.7801,-0.0222,-0.6114,2.1989,2.5331,-22.5088,-22.7909
7272,-0.0641,0.0014,9.7446,-0.0070,-0.4653,2.2449,2.5313,-22.4231,-22.7114
7280,-0.0508,-0.0033,9.7530,0.0370,-0.4616,2.2862,2.5316,-22.3349,-22.6366
7288,-0.0534,-0.0117,9.7452,0.0603,-0.6233,2.5204,2.5298,-22.2514,-22.5521
7296,-0.1127,0.0212,9.7435,-0.0987,-0.8127,2.6084,2.5259,-22.1627,-22.4716
7304,-0.0770,0.0333,9.7275,-0.2055,-0.6738,2.5512,2.5219,-22.0744,-22.3914
7312,-0.0725,0.0478,9.7407,-0.0435,-0.4529,2.4751,2.5179,-21.9865,-22.3115
7320,-0.0890,0.0336,9.7645,-0.0247,-0.2604,2.3784,2.5167,-21.9052,-22.2299
7328,-0.0756,0.0290,9.7756,0.0013,-0.0123,2.3766,2.5155,-21.8243,-22.1487
7336,-0.0644,0.0335,9.8166,-0.1764,0.0169,2.4281,2.5114,-21.7431,-22.0720
7344,-0.0657,0.0225,9.7931,-0.2264,0.0902,2.2588,2.5074,-21.6623,-21.9956
7352,-0.0222,0.0084,9.8293,-0.2609,0.1923,2.3422,2.5033,-21.5818,-21.9195
7360,0.0112,-0.0225,9.8019,-0.2992,0.3700,2.4406,2.5000,-21.4989,-21.8410
7368,0.0219,-0.0327,9.8203,-0.1759,0.3852,2.5081,2.4945,-21.4212,-21.7670
7376,0.0657,-0.0442,9.7929,-0.0339,0.3384,2.6206,2.4946,-21.3390,-21.6940
7384,0.0725,-0.0219,9.8022,0.0059,0.2616,2.5335,2.4925,-21.2572,-21.6213
7392,0.0218,-0.0125,9.8065,0.0732,0.2442,2.4875,2.4904,-21.1819,-21.5502
7400,0.0560,-0.0169,9.7922,0.0203,0.3422,2.3556,2.4897,-21.1035,-21.4760
7408,0.0998,-0.0103,9.7911,0.0550,0.3667,2.1868,2.4842,-21.0187,-21.3968
7416,0.1398,0.0034,9.8046,0.1469,0.5847,2.0413,2.4855,-20.9411,-21.3246
7424,0.1282,-0.0558,9.8278,0.1574,0.6118,2.0542,2.4867,-20.8637,-21.2527
7432,0.1063,-0.0419,9.8229,0.0688,0.5098,2.0692,2.4973,-20.7888,-21.1765
7440,0.1116,-0.0038,9.8503,0.2187,0.7082,2.1529,2.4997,-20.7121,-21.1072
7448,0.1068,-0.0235,9.8414,0.1355,0.7219,2.2116,2.4987,-20.6304,-21.0349
7456,0.1193,-0.0004,9.8593,0.1225,0.5644,2.1238,2.4976,-20.5491,-20.9630
7464,0.0955,0.0228,9.8226,0.0621,0.4298,2.2611,2.4965,-20.4682,-20.8913
7472,0.0781,0.0320,9.8428,-0.0517,0.1677,2.2404,2.4953,-20.3949,-20.8179
7480,0.0783,0.0398,9.8528,-0.0885,0.0397,2.0499,2.4941,-20.3219,-20.7448
7488,0.0694,-0.0032,9.8568,-0.0757,0.0507,1.9931,2.4956,-20.2400,-20.6747
7496,0.0763,0.0016,9.8523,-0.1727,-0.1575,1.7868,2.4949,-20.1565,-20.6049
7504,0.1273,0.0214,9.8459,-0.1856,-0.1325,1.7495,2.4943,-20.0733,-20.5353
7512,0.1073,-0.0012,9.8424,-0.0698,-0.2047,1.7645,2.4956,-19.9905,-20.4674
7520,0.0432,-0.0216,9.8197,-0.0658,-0.0497,1.7842,2.4928,-19.9160,-20.3958
7528,0.0322,-0.0424,9.8205,-0.2940,0.0479,1.8563,2.4901,-19.8346,-20.3213
7536,0.0723,-0.0343,9.8240,-0.2215,0.1625,1.7600,2.4905,-19.7588,-20.2522
7544,0.0575,-0.0348,9.8231,-0.1549,0.0641,1.8999,2.4910,-19.6834,-20.1835
7552,0.0478,-0.0292,9.8222,-0.1205,0.1753,1.8843,2.4862,-19.6135,-20.1131
7560,0.0655,-0.0484,9.8191,-0.0290,0.1057,1.8774,2.4852,-19.5361,-20.0456
7568,0.0596,-0.0438,9.8164,0.0932,0.1565,1.7322,2.4810,-19.4642,-19.9752
7576,0.0543,-0.0411,9.8207,0.2288,0.3863,1.8439,2.4781,-19.3881,-19.9076
7584,0.0262,-0.0340,9.8164,0.1744,0.3075,1.6601,2.4751,-19.3123,-19.8403
7592,0.0168,-0.0190,9.8258,0.1704,0.2401,1.5457,2.4721,-19.2369,-19.7733
7600,0.0096,0.0050,9.8133,0.2359,0.2850,1.5430,2.4678,-19.1644,-19.7136
7608,0.0532,0.0341,9.8015,0.3278,0.3279,1.5297,2.4635,-19.0921,-19.6542
7616,0.0776,0.0559,9.8145,0.2771,0.2329,1.2316,2.4592,-19.0202,-19.5949
7624,0.0956,0.0742,9.8332,0.3779,0.0328,1.2266,2.4593,-18.9480,-19.5269
7632,0.0750,0.0930,9.8518,0.2983,0.2280,0.9818,2.4595,-18.8761,-19.4592
7640,0.0755,0.0923,9.8460,0.3956,0.1961,0.9131,2.4576,-18.8026,-19.4026
7648,0.1033,0.1131,9.8598,0.3952,0.4109,0.6260,2.4532,-18.7307,-19.3335
7656,0.1357,0.0909,9.8408,0.3576,0.4297,0.4288,2.4488,-18.6590,-19.2646
7664,0.1323,0.1081,9.8333,0.2362,0.6396,0.1709,2.4519,-18.5934,-19.2029
7672,0.1606,0.0746,9.8132,0.2668,0.7016,0.0283,2.4475,-18.5224,-19.1390
7680,0.1233,0.0920,9.8365,0.3308,0.6250,-0.1481,2.4423,-18.4492,-19.0759
7688,0.1329,0.0768,9.8166,0.2212,0.7011,-0.3461,2.4397,-18.3819,-19.0093
7696,0.0982,0.0599,9.8073,0.2605,0.4591,-0.4928,2.4371,-18.3150,-18.9429
7704,0.0947,0.0054,9.7861,0.3007,0.4864,-0.5264,2.4338,-18.2439,-18.8806
7712,0.0951,0.0185,9.8188,0.1632,0.4405,-0.4492,2.4287,-18.1769,-18.8141
7720,0.0969,0.0067,9.8042,0.3143,0.2340,-0.4713,2.4235,-18.1102,-18.7478
7728,0.1058,-0.0045,9.7874,0.2989,0.3084,-0.5272,2.4189,-18.0475,-18.6869
7736,0.1316,-0.0119,9.8018,0.3427,0.3423,-0.6100,2.4144,-17.9850,-18.6261
7744,0.1103,0.0288,9.7833,0.3527,0.2814,-0.5531,2.4098,-17.9228,-18.5656
7752,0.1061,0.0451,9.7785,0.3142,0.2898,-0.6881,2.4077,-17.8584,-18.5034
7760,0.1364,0.0126,9.7719,0.3094,0.4072,-0.6625,2.4056,-17.7943,-18.4414
7768,0.1388,0.0067,9.7873,0.2382,0.3808,-0.7686,2.4066,-17.7254,-18.3766
7776,0.1387,-0.0126,9.7739,0.3354,0.4941,-0.7208,2.4075,-17.6569,-18.3120
7784,0.1450,0.0117,9.7904,0.3777,0.4852,-0.7071,2.4072,-17.5936,-18.2539
7792,0.1652,-0.0040,9.8004,0.3648,0.5941,-0.7473,2.4087,-17.5299,-18.1904
7800,0.1776,-0.0470,9.7808,0.2937,0.4795,-0.9191,2.4040,-17.4634,-18.1333
7808,0.1611,-0.0913,9.7848,0.3485,0.5645,-1.1154,2.3993,-17.4003,-18.0765
7816,0.1807,-0.0831,9.7940,0.2756,0.5606,-1.1485,2.3946,-17.3374,-18.0137
7824,0.1365,-0.0666,9.7882,0.2671,0.4528,-1.1240,2.3941,-17.2693,-17.9474
7832,0.1252,-0.0603,9.7765,0.2964,0.3550,-1.0607,2.3949,-17.1966,-17.8888
7840,0.1278,-0.0446,9.7946,0.1990,0.4642,-0.8961,2.3895,-17.1303,-17.8346
7848,0.1173,-0.0742,9.8038,0.3219,0.3713,-0.7921,2.3842,-17.0643,-17.7807
7856,0.1020,-0.0580,9.7710,0.3248,0.3171,-0.7113,2.3788,-16.9986,-17.7269
7864,0.1268,-0.0594,9.7601,0.5009,0.2493,-0.7327,2.3752,-16.9350,-17.6709
7872,0.1756,-0.0648,9.7876,0.4079,0.2297,-0.7024,2.3717,-16.8717,-17.6151
7880,0.2135,-0.0568,9.7828,0.5324,0.0671,-0.6362,2.3694,-16.8104,-17.5565
7888,0.2044,-0.0733,9.7935,0.5607,-0.0485,-0.5355,2.3670,-16.7495,-17.4980
7896,0.1976,-0.0683,9.7950,0.4865,-0.1376,-0.5859,2.3646,-16.6888,-17.4398
7904,0.1796,-0.0591,9.8059,0.4955,0.0784,-0.5328,2.3556,-16.6271,-17.3795
7912,0.1688,-0.0594,9.8140,0.5174,0.0797,-0.4953,2.3520,-16.5651,-17.3187
7920,0.1517,-0.0593,9.8044,0.4664,0.1049,-0.3608,2.3485,-16.5016,-17.2582
7928,0.1185,-0.0637,9.7967,0.5216,0.2010,-0.3868,2.3449,-16.4383,-17.1978
7936,0.1495,-0.0737,9.8093,0.5637,0.1223,-0.5184,2.3365,-16.3753,-17.1420
7944,0.1315,-0.0799,9.7974,0.6254,0.2417,-0.6655,2.3335,-16.3168,-17.0839
7952,0.0851,-0.0706,9.8013,0.6336,0.2411,-0.7662,2.3281,-16.2544,-17.0302
7960,0.0573,-0.0544,9.7920,0.5535,0.2193,-0.9585,2.3263,-16.1933,-16.9726
7968,0.0431,-0.0187,9.7941,0.5463,0.2411,-1.1318,2.3245,-16.1326,-16.9151
7976,0.0093,-0.0503,9.7992,0.6273,0.2513,-1.1587,2.3239,-16.0727,-16.8621
7984,-0.0117,-0.0241,9.8106,0.6782,0.1810,-1.2592,2.3232,-16.0131,-16.8092
7992,-0.0349,-0.0424,9.8155,0.6788,0.2098,-1.4006,2.3202,-15.9513,-16.7524
8000,0.0079,-0.0270,9.8322,0.5647,0.2347,-1.5065,2.3172,-15.8898,-16.6958
8008,0.0039,-0.0313,9.8268,0.6050,0.1944,-1.6825,2.3141,-15.8286,-16.6394
8016,-0.0248,-0.0521,9.8133,0.5901,0.0306,-1.7867,2.3045,-15.7718,-16.5856
8024,-0.0322,-0.0682,9.8416,0.5999,0.1194,-2.0224,2.2950,-15.7152,-16.5319
8032,-0.0260,-0.0622,9.8181,0.6253,0.0762,-1.9971,2.2896,-15.6600,-16.4785
8040,0.0169,-0.0613,9.7926,0.6096,0.2456,-2.1862,2.2843,-15.6050,-16.4253
8048,0.0010,-0.0670,9.8010,0.7279,0.4289,-2.1617,2.2771,-15.5468,-16.3716
8056,-0.0088,-0.0620,9.8155,0.6090,0.6521,-2.0984,2.2677,-15.4876,-16.3129
8064,-0.0162,-0.0580,9.8267,0.5513,0.6123,-2.0964,2.2577,-15.4281,-16.2609
8072,-0.0485,-0.0580,9.8369,0.4855,0.6063,-2.0092,2.2506,-15.3688,-16.2061
8080,-0.0408,-0.0671,9.8347,0.4038,0.5685,-1.9898,2.2436,-15.3098,-16.1515
8088,-0.0689,-0.0699,9.8382,0.5151,0.4283,-1.9579,2.2383,-15.2504,-16.0965
8096,-0.0593,-0.0483,9.8154,0.4002,0.2890,-2.1541,2.2324,-15.1936,-16.0441
8104,-0.1262,-0.0283,9.8335,0.3410,0.1610,-2.0911,2.2318,-15.1423,-15.9866
8112,-0.1130,-0.0334,9.8485,0.4150,0.0787,-2.1001,2.2225,-15.0819,-15.9393
8120,-0.1201,-0.0139,9.8548,0.4725,-0.0000,-2.0421,2.2132,-15.0218,-15.8921
8128,-0.0897,-0.0295,9.8436,0.4074,-0.0566,-2.0213,2.2086,-14.9700,-15.8404
8136,-0.1150,-0.0440,9.8335,0.3292,-0.1721,-2.0253,2.2039,-14.9184,-15.7889
8144,-0.0741,-0.0317,9.8203,0.3211,-0.0025,-1.8906,2.1947,-14.8619,-15.7312
8152,-0.0626,-0.0114,9.7996,0.4414,-0.0377,-1.5964,2.1855,-14.8055,-15.6738
8160,-0.0526,-0.0013,9.8015,0.3910,0.1126,-1.5844,2.1763,-14.7494,-15.6166
8168,-0.0646,0.0352,9.8027,0.3268,0.0404,-1.4449,2.1717,-14.6947,-15.5670
8176,-0.0545,0.0273,9.8060,0.2362,-0.1140,-1.3089,2.1671,-14.6402,-15.5177
8184,-0.0890,0.0319,9.8396,0.2268,-0.0483,-1.3175,2.1591,-14.5883,-15.4639
8192,-0.1053,-0.0045,9.8157,0.1591,0.1159,-1.3630,2.1512,-14.5365,-15.4104
8200,-0.1232,0.0064,9.8169,0.2545,0.1582,-1.3239,2.1444,-14.4855,-15.3519
8208,-0.1389,0.0162,9.7980,0.1350,0.1880,-1.0998,2.1359,-14.4302,-15.3004
8216,-0.1085,0.0128,9.7845,0.1567,0.1445,-0.9548,2.1251,-14.3773,-15.2475
8224,-0.1347,0.0024,9.7645,0.1241,0.0175,-1.0136,2.1167,-14.3270,-15.1993
8232,-0.1243,-0.0047,9.7610,0.2023,0.0642,-1.1604,2.1082,-14.2769,-15.1513
8240,-0.0866,0.0034,9.7287,0.3144,0.2367,-1.3114,2.1033,-14.2201,-15.1018
8248,-0.1172,0.0167,9.7537,0.3949,0.2178,-1.2719,2.0977,-14.1658,-15.0513
8256,-0.0716,0.0132,9.7654,0.3626,0.1649,-1.2101,2.0933,-14.1107,-15.0038
8264,-0.0776,0.0247,9.7727,0.3877,0.1971,-1.1643,2.0890,-14.0557,-14.9565
8272,-0.0635,0.0455,9.7625,0.3183,0.2385,-1.0752,2.0846,-14.0010,-14.9093
8280,-0.0444,0.0621,9.7597,0.2947,0.0248,-1.1020,2.0814,-13.9425,-14.8646
8288,-0.0708,0.0643,9.7690,0.2321,-0.0489,-0.9463,2.0781,-13.8843,-14.8201
8296,-0.0551,0.0445,9.7860,0.2789,0.0246,-0.9121,2.0715,-13.8302,-14.7723
8304,-0.0349,0.0342,9.8096,0.2490,-0.1317,-0.7913,2.0649,-13.7764,-14.7247
8312,-0.0076,0.0159,9.8032,0.1030,-0.2013,-0.7372,2.0583,-13.7228,-14.6773
8320,-0.0193,-0.0089,9.8051,0.1661,-0.2091,-0.6295,2.0517,-13.6722,-14.6311
8328,0.0020,-0.0473,9.8096,0.2585,-0.3739,-0.6571,2.0401,-13.6207,-14.5790
8336,-0.0274,-0.0269,9.8091,0.2135,-0.3635,-0.5128,2.0342,-13.5768,-14.5298
8344,-0.0149,-0.0007,9.8219,0.1331,-0.2762,-0.4656,2.0282,-13.5329,-14.4808
8352,-0.0268,-0.0148,9.8102,0.1042,-0.0194,-0.3777,2.0234,-13.4809,-14.4365
8360,0.0280,0.0093,9.8028,0.0846,0.0928,-0.3843,2.0175,-13.4335,-14.3896
8368,-0.0071,0.0029,9.8203,0.0658,0.0481,-0.3427,2.0116,-13.3791,-14.3467
8376,0.0076,-0.0179,9.8042,0.1919,0.3094,-0.2735,2.0074,-13.3299,-14.2978
8384,0.0149,0.0170,9.7929,0.3285,0.2712,-0.2900,2.0032,-13.2809,-14.2491
8392,0.0138,0.0030,9.7848,0.3657,0.1254,-0.3111,1.9968,-13.2349,-14.2017
8400,0.0083,0.0190,9.7699,0.3933,0.0873,-0.3153,1.9903,-13.1890,-14.1545
8408,0.0083,0.0031,9.7709,0.4437,0.0615,-0.2500,1.9873,-13.1395,-14.1097
8416,-0.0031,0.0073,9.7531,0.4386,0.2076,-0.3076,1.9842,-13.0901,-14.0650
8424,-0.0243,0.0133,9.7421,0.3964,0.2219,-0.4426,1.9812,-13.0409,-14.0205
8432,0.0016,-0.0171,9.7261,0.2573,0.1155,-0.3797,1.9754,-12.9919,-13.9762
8440,0.0177,0.0140,9.7304,0.2203,0.0085,-0.5089,1.9696,-12.9432,-13.9320
8448,0.0410,0.0377,9.7488,0.2490,0.0395,-0.6032,1.9682,-12.8957,-13.8857
8456,0.0716,0.0295,9.7327,0.3457,-0.0401,-0.4879,1.9630,-12.8456,-13.8424
8464,0.0651,0.0071,9.7450,0.3822,-0.0603,-0.5511,1.9577,-12.7957,-13.7993
8472,0.1144,0.0191,9.7397,0.2944,0.0083,-0.3955,1.9514,-12.7472,-13.7524
8480,0.1070,0.0313,9.7427,0.3945,0.1274,-0.4307,1.9462,-12.7032,-13.7068
8488,0.1172,0.0010,9.7472,0.3035,0.0118,-0.2963,1.9388,-12.6572,-13.6569
8496,0.1032,0.0040,9.7572,0.4085,-0.1120,-0.0905,1.9309,-12.6048,-13.6067
8504,0.1279,-0.0356,9.7826,0.3623,-0.1610,-0.1470,1.9230,-12.5526,-13.5567
8512,0.1024,-0.0100,9.7765,0.4541,-0.2239,-0.0757,1.9168,-12.5066,-13.5096
8520,0.1499,0.0064,9.8120,0.4698,-0.0868,-0.1836,1.9112,-12.4532,-13.4616
8528,0.1820,-0.0179,9.8072,0.5035,-0.0916,-0.0600,1.9006,-12.4059,-13.4148
8536,0.2211,-0.0108,9.8206,0.4345,-0.0402,-0.1472,1.8955,-12.3633,-13.3683
8544,0.2897,-0.0486,9.8099,0.2991,0.0729,-0.0359,1.8905,-12.3208,-13.3219
8552,0.3549,-0.0814,9.7989,0.2176,0.1224,0.1825,1.8855,-12.2785,-13.2756
8560,0.3998,-0.0678,9.7949,0.2864,0.0978,0.3647,1.8793,-12.2309,-13.2307
8568,0.4254,-0.0673,9.7894,0.2935,0.1142,0.4669,1.8733,-12.1835,-13.1858
8576,0.4755,-0.0550,9.8045,0.3082,0.0980,0.5060,1.8672,-12.1363,-13.1412
8584,0.5049,-0.0284,9.8214,0.3064,0.0450,0.6261,1.8573,-12.0909,-13.0962
8592,0.5123,-0.0253,9.8211,0.2939,0.0478,0.8742,1.8475,-12.0457,-13.0513
8600,0.5217,-0.0230,9.8063,0.3274,0.0131,0.9195,1.8415,-12.0028,-13.0109
8608,0.5476,-0.0373,9.8052,0.3513,-0.0308,0.9735,1.8290,-11.9579,-12.9647
8616,0.5382,-0.0374,9.8043,0.3449,-0.0034,0.9797,1.8165,-11.9132,-12.9187
8624,0.5452,-0.0394,9.8020,0.3361,0.0601,0.9697,1.8122,-11.8687,-12.8728
8632,0.5306,-0.0289,9.8173,0.3383,0.0702,1.0375,1.8085,-11.8254,-12.8320
8640,0.5132,-0.0253,9.8179,0.2872,-0.0081,0.8943,1.8059,-11.7802,-12.7854
8648,0.4921,-0.0170,9.8266,0.2595,-0.0004,0.9654,1.8006,-11.7351,-12.7427
8656,0.4793,-0.0104,9.8295,0.1425,0.0763,0.8600,1.7952,-11.6902,-12.7002
8664,0.4450,-0.0059,9.8267,0.1505,0.1150,0.8819,1.7905,-11.6460,-12.6573
8672,0.3998,-0.0058,9.8309,0.0222,0.1627,0.8282,1.7782,-11.6058,-12.6113
8680,0.3653,-0.0090,9.8357,0.0355,0.0670,0.8808,1.7659,-11.5657,-12.5655
8688,0.3341,-0.0068,9.8364,-0.0077,0.0981,0.8752,1.7548,-11.5237,-12.5242
8696,0.3045,-0.0067,9.8288,0.0575,0.0665,0.8431,1.7437,-11.4817,-12.4830
8704,0.2799,-0.0056,9.8269,0.0293,0.0790,0.7271,1.7326,-11.4400,-12.4419
8712,0.2532,-0.0047,9.8207,0.0156,0.0536,0.6748,1.7286,-11.4006,-12.4031
8720,0.2213,-0.0061,9.8264,-0.0348,0.1439,0.5395,1.7246,-11.3613,-12.3645
8728,0.1892,-0.0042,9.8212,0.0050,0.0330,0.5940,1.7206,-11.3136,-12.3250
8736,0.1669,0.0093,9.8095,-0.0129,0.0123,0.5209,1.7166,-11.2660,-12.2856
8744,0.1478,0.0184,9.8045,0.0073,-0.0715,0.4590,1.7152,-11.2240,-12.2447
8752,0.1258,0.0179,9.8018,-0.0081,-0.0370,0.5571,1.7059,-11.1838,-12.2028
8760,0.1156,0.0171,9.7984,-0.0175,-0.0200,0.5816,1.7014,-11.1416,-12.1628
8768,0.1067,0.0218,9.7967,-0.0264,-0.0784,0.6103,1.6969,-11.0996,-12.1229
8776,0.1047,0.0115,9.7979,0.0503,-0.0996,0.4325,1.6951,-11.0646,-12.0810
8784,0.0919,0.0071,9.7999,0.0998,-0.0799,0.5851,1.6896,-11.0218,-12.0392
8792,0.0889,-0.0009,9.8030,0.0830,-0.0904,0.5524,1.6830,-10.9797,-11.9981
8800,0.0785,-0.0082,9.7972,0.0083,-0.0924,0.4864,1.6775,-10.9410,-11.9614
8808,0.0782,-0.0102,9.7920,0.0062,-0.0889,0.4713,1.6720,-10.9024,-11.9249
8816,0.0666,-0.0161,9.7973,0.0523,-0.0963,0.4595,1.6665,-10.8639,-11.8885
8824,0.0547,-0.0128,9.7980,0.0989,-0.1354,0.4430,1.6611,-10.8256,-11.8495
8832,0.0466,-0.0185,9.7972,0.1329,-0.1648,0.3631,1.6556,-10.7874,-11.8107
8840,0.0512,-0.0227,9.7984,0.1973,-0.2115,0.3614,1.6550,-10.7415,-11.7763
8848,0.0526,-0.0233,9.8021,0.1737,-0.1496,0.4825,1.6543,-10.6956,-11.7420
8856,0.0420,-0.0121,9.8037,0.1057,-0.1836,0.5049,1.6537,-10.6500,-11.7078
8864,0.0288,0.0013,9.7924,0.1580,-0.1389,0.6916,1.6514,-10.6136,-11.6690
8872,0.0232,-0.0025,9.7981,0.0934,-0.0588,1.0809,1.6423,-10.5757,-11.6292
8880,0.0163,-0.0128,9.7923,0.1862,-0.0515,1.4531,1.6390,-10.5358,-11.5901
8888,-0.0031,-0.0057,9.7994,0.2030,-0.0072,1.6784,1.6358,-10.4961,-11.5511
8896,-0.0230,0.0112,9.7917,0.1444,0.0618,1.9259,1.6325,-10.4581,-11.5160
8904,-0.0387,0.0305,9.7920,0.2004,-0.0642,2.2025,1.6293,-10.4203,-11.4810
8912,-0.0538,0.0390,9.7982,0.1926,-0.0033,2.2857,1.6244,-10.3805,-11.4482
8920,-0.0452,0.0452,9.8056,0.2598,-0.0065,2.4452,1.6238,-10.3440,-11.4071
8928,-0.0214,0.0208,9.8019,0.1854,0.0119,2.6032,1.6232,-10.3076,-11.3662
8936,-0.0085,0.0060,9.8003,0.1809,-0.1253,2.7328,1.6190,-10.2714,-11.3307
8944,0.0022,-0.0137,9.8130,0.2166,-0.0457,2.7528,1.6157,-10.2354,-11.2900
8952,0.0060,-0.0202,9.8149,0.2160,-0.0790,2.8386,1.6109,-10.1989,-11.2500
8960,0.0025,-0.0225,9.8198,0.1995,-0.1055,2.8487,1.6062,-10.1626,-11.2101
8968,-0.0242,0.0028,9.8124,0.1304,-0.1415,2.8716,1.6014,-10.1264,-11.1704
8976,-0.0302,0.0408,9.8076,0.1123,-0.0880,2.7629,1.6056,-10.0861,-11.1361
8984,-0.0448,0.0619,9.7959,0.1404,-0.0741,2.7096,1.6097,-10.0460,-11.1018
8992,-0.0347,0.0564,9.7963,0.0392,-0.0901,2.5146,1.6086,-10.0050,-11.0641
9000,-0.0438,0.0669,9.7948,-0.0096,-0.1055,2.3575,1.6075,-9.9641,-11.0264
9008,-0.0302,0.0960,9.7911,-0.0962,-0.0935,2.1699,1.6063,-9.9234,-10.9889
9016,-0.0475,0.1561,9.7969,-0.1524,-0.0527,2.0118,1.6021,-9.8876,-10.9531
9024,-0.0413,0.1662,9.8009,-0.1128,-0.0830,1.7887,1.5978,-9.8503,-10.9217
9032,-0.0498,0.2196,9.8199,-0.1256,-0.0213,1.4953,1.5941,-9.8179,-10.8908
9040,-0.0524,0.2519,9.8248,-0.1298,-0.0637,1.1615,1.5904,-9.7856,-10.8600
9048,-0.0271,0.2839,9.8083,-0.1498,-0.0428,0.7995,1.5909,-9.7508,-10.8189
9056,-0.0141,0.3211,9.8088,-0.1530,-0.0603,0.3094,1.5919,-9.7156,-10.7837
9064,-0.0084,0.3201,9.8125,-0.1880,-0.0876,-0.2739,1.5897,-9.6811,-10.7507
9072,-0.0209,0.3511,9.8031,-0.1735,-0.0097,-0.7384,1.5866,-9.6446,-10.7137
9080,-0.0199,0.4219,9.8333,-0.2263,-0.0846,-1.1853,1.5834,-9.6082,-10.6768
9088,-0.0191,0.3890,9.8251,-0.2102,-0.0495,-1.5992,1.5828,-9.5694,-10.6446
9096,-0.0151,0.3975,9.8017,-0.3387,0.0560,-2.0164,1.5823,-9.5307,-10.6126
9104,-0.0056,0.3756,9.8102,-0.3736,0.1170,-2.1861,1.5781,-9.4963,-10.5808
9112,0.0017,0.4090,9.8146,-0.3083,0.1326,-2.6123,1.5739,-9.4621,-10.5490
9120,-0.0032,0.4079,9.8000,-0.1179,0.0888,-3.0092,1.5697,-9.4280,-10.5173
9128,0.0121,0.4105,9.8009,-0.1144,0.0470,-3.2767,1.5660,-9.3929,-10.4816
9136,0.0236,0.4128,9.7839,-0.1218,-0.0170,-3.6179,1.5624,-9.3580,-10.4460
9144,0.0312,0.3603,9.7922,-0.0622,-0.0862,-3.8721,1.5520,-9.3253,-10.4162
9152,0.0509,0.3269,9.8084,-0.0079,-0.0378,-4.0513,1.5417,-9.2927,-10.3865
9160,0.0487,0.2989,9.7967,-0.0946,-0.0687,-4.1613,1.5350,-9.2592,-10.3528
9168,0.0594,0.2048,9.7942,0.0465,0.0030,-4.3037,1.5335,-9.2284,-10.3208
9176,0.0605,0.1657,9.7797,0.0827,0.0156,-4.4080,1.5284,-9.1962,-10.2889
9184,0.0551,0.0834,9.7971,0.0694,-0.0551,-4.2731,1.5270,-9.1667,-10.2596
9192,0.0511,0.0394,9.8033,0.1286,0.0054,-4.1733,1.5255,-9.1372,-10.2305
9200,0.0438,0.0574,9.7861,0.1800,0.0659,-3.9766,1.5194,-9.1048,-10.1968
9208,0.0518,0.1162,9.7951,0.1730,0.1877,-3.5859,1.5185,-9.0741,-10.1658
9216,0.0659,0.1784,9.7882,0.2171,0.1495,-3.4282,1.5155,-9.0388,-10.1318
9224,0.0627,0.1864,9.8021,0.3499,0.1584,-3.2454,1.5125,-9.0036,-10.0980
9232,0.0717,0.1773,9.7955,0.2395,0.1508,-3.0413,1.5095,-8.9686,-10.0642
9240,0.0761,0.1872,9.7913,0.2140,0.1756,-2.8195,1.5035,-8.9394,-10.0301
9248,0.0610,0.1889,9.7980,0.2429,0.1006,-2.6766,1.4974,-8.9103,-9.9961
9256,0.0674,0.2424,9.7977,0.1772,-0.0164,-2.5054,1.4930,-8.8771,-9.9632
9264,0.0631,0.2822,9.8371,0.1491,-0.0536,-2.6936,1.4885,-8.8441,-9.9304
9272,0.0584,0.3928,9.8285,0.1782,-0.1852,-2.7750,1.4841,-8.8112,-9.8978
9280,0.0459,0.4201,9.8490,0.0940,-0.1137,-2.9434,1.4827,-8.7795,-9.8657
9288,0.0478,0.4293,9.8398,0.2028,-0.1627,-3.0619,1.4768,-8.7499,-9.8359
9296,0.0281,0.4663,9.8355,0.2643,-0.1722,-3.4124,1.4759,-8.7148,-9.8025
9304,0.0089,0.3503,9.8193,0.2803,-0.1680,-3.7530,1.4751,-8.6798,-9.7693
9312,-0.0021,0.2878,9.8361,0.3463,-0.1319,-3.8920,1.4687,-8.6485,-9.7356
9320,0.0039,0.3068,9.8431,0.2761,-0.0628,-4.1583,1.4679,-8.6138,-9.7026
9328,0.0171,0.2156,9.8426,0.4997,-0.2340,-4.2716,1.4619,-8.5858,-9.6682
9336,0.0099,0.1477,9.8545,0.3961,-0.1924,-4.3986,1.4601,-8.5528,-9.6390
9344,0.0252,0.1199,9.8543,0.5210,-0.1713,-4.2854,1.4583,-8.5200,-9.6099
9352,0.0295,0.0629,9.8714,0.4592,-0.1564,-4.2091,1.4555,-8.4837,-9.5830
9360,0.0248,0.1384,9.8573,0.5281,-0.3448,-4.2615,1.4506,-8.4531,-9.5561
9368,0.0237,0.1215,9.8450,0.6366,-0.3970,-4.6930,1.4458,-8.4262,-9.5268
9376,0.0127,0.1873,9.8430,0.3724,-0.4870,-4.8229,1.4410,-8.3994,-9.4976
9384,0.0291,0.2191,9.8174,0.3917,-0.6396,-5.1471,1.4361,-8.3727,-9.4684
9392,0.0189,0.2479,9.8025,0.2582,-0.6763,-5.2491,1.4293,-8.3380,-9.4348
9400,0.0462,0.2224,9.8118,0.2852,-0.6686,-5.4241,1.4225,-8.3034,-9.4013
9408,0.0280,0.2545,9.8321,0.2630,-0.6080,-5.3913,1.4152,-8.2745,-9.3725
9416,0.0229,0.2170,9.8235,0.2764,-0.5314,-5.4880,1.4079,-8.2457,-9.3438
9424,0.0275,0.2141,9.8167,0.1986,-0.5141,-5.2925,1.4007,-8.2170,-9.3152
9432,0.0275,0.2009,9.8010,0.3402,-0.5829,-5.3429,1.3909,-8.1848,-9.2842
9440,0.0402,0.2086,9.8081,0.4943,-0.4967,-5.3430,1.3827,-8.1558,-9.2553
9448,0.0367,0.2202,9.8406,0.5403,-0.3609,-5.2552,1.3760,-8.1285,-9.2239
9456,0.0172,0.1814,9.8417,0.5123,-0.1751,-5.4218,1.3668,-8.1012,-9.1962
9464,-0.0023,0.1618,9.8322,0.5361,-0.3094,-5.4585,1.3577,-8.0740,-9.1686
9472,0.0010,0.2388,9.8150,0.5910,-0.3925,-5.8029,1.3455,-8.0459,-9.1391
9480,0.0181,0.2274,9.7926,0.5927,-0.5679,-5.8443,1.3420,-8.0220,-9.1122
9488,0.0012,0.2440,9.7896,0.5304,-0.5571,-6.0359,1.3375,-7.9875,-9.0818
9496,0.0010,0.2963,9.7095,0.5588,-0.5893,-5.8724,1.3290,-7.9532,-9.0516
9504,-0.0129,0.1934,9.7231,0.3647,-0.6202,-5.7160,1.3205,-7.9189,-9.0240
9512,-0.0186,0.1526,9.7099,0.5337,-0.6817,-5.7612,1.3120,-7.8848,-8.9964
9520,-0.0261,0.0524,9.7243,0.2873,-0.6365,-5.7591,1.3015,-7.8569,-8.9695
9528,-0.0807,0.0137,9.7256,0.2703,-0.5799,-5.2450,1.2911,-7.8290,-8.9427
9536,-0.1041,0.1080,9.7171,0.2621,-0.5659,-5.2548,1.2807,-7.8013,-8.9159
9544,-0.0988,0.1272,9.7396,0.2863,-0.5364,-5.2268,1.2724,-7.7732,-8.8888
9552,-0.0718,0.1998,9.7685,0.0480,-0.4362,-5.3120,1.2641,-7.7451,-8.8617
9560,-0.0359,0.2418,9.7760,0.0789,-0.6178,-5.5029,1.2558,-7.7182,-8.8332
9568,-0.0130,0.2260,9.8115,0.3030,-0.3647,-5.5440,1.2450,-7.6904,-8.8028
9576,-0.0083,0.2081,9.7972,0.6001,-0.1174,-5.5034,1.2343,-7.6626,-8.7725
9584,0.0133,0.0780,9.8134,0.7054,-0.0195,-5.4592,1.2281,-7.6370,-8.7438
9592,0.0370,0.0646,9.8107,0.4755,-0.0646,-5.3609,1.2149,-7.6079,-8.7182
9600,0.0302,0.1582,9.8379,0.2770,-0.3664,-5.2563,1.2073,-7.5785,-8.6897
9608,0.0359,0.2396,9.8024,0.3912,-0.5244,-5.3269,1.2007,-7.5456,-8.6633
9616,0.0342,0.2309,9.8089,0.3190,-0.3527,-5.5064,1.1941,-7.5128,-8.6370
9624,0.0522,0.2057,9.8436,0.2394,-0.3859,-5.6141,1.1796,-7.4822,-8.6062
9632,0.0280,0.2489,9.8818,0.1872,-0.4870,-5.8237,1.1665,-7.4496,-8.5776
9640,0.0220,0.1304,9.8621,0.1506,-0.3730,-5.9842,1.1586,-7.4262,-8.5491
9648,0.0098,0.0802,9.8721,0.2490,-0.2906,-6.0149,1.1476,-7.3984,-8.5226
9656,-0.0058,0.0128,9.8447,0.1670,-0.3959,-6.0124,1.1367,-7.3707,-8.4963
9664,-0.0054,0.0320,9.8117,0.1740,-0.4218,-5.9512,1.1259,-7.3431,-8.4700
9672,-0.0018,0.0335,9.8115,0.1753,-0.3374,-5.9755,1.1201,-7.3130,-8.4363
9680,-0.0200,0.0311,9.7995,0.1153,-0.3312,-5.8066,1.1143,-7.2831,-8.4028
9688,-0.0077,-0.0457,9.8131,0.0045,-0.1707,-5.5332,1.1070,-7.2548,-8.3753
9696,0.0134,-0.1038,9.8314,0.0879,-0.3052,-5.6610,1.0998,-7.2265,-8.3480
9704,0.0361,-0.0867,9.8717,0.1917,-0.3805,-5.2632,1.0901,-7.1994,-8.3257
9712,0.0308,-0.0708,9.8530,0.1496,-0.3778,-5.1015,1.0824,-7.1719,-8.2955
9720,0.0036,-0.0850,9.8361,0.1387,-0.4445,-5.1389,1.0712,-7.1459,-8.2704
9728,-0.0219,-0.0779,9.8449,0.0775,-0.4044,-5.0333,1.0601,-7.1201,-8.2455
9736,-0.0099,-0.0173,9.8547,0.0831,-0.3340,-4.9324,1.0550,-7.0944,-8.2190
9744,0.0118,0.0540,9.8149,0.2297,-0.3093,-4.9798,1.0424,-7.0662,-8.1942
9752,0.0270,0.0730,9.7998,0.2686,-0.3418,-4.9372,1.0274,-7.0351,-8.1680
9760,0.0129,0.0755,9.7902,0.2472,-0.3088,-4.8351,1.0154,-7.0062,-8.1403
9768,0.0207,0.1116,9.7829,0.1680,-0.2932,-4.6041,1.0035,-6.9773,-8.1128
9776,0.0286,0.0713,9.7635,-0.0064,-0.3504,-4.7806,0.9951,-6.9531,-8.0858
9784,0.0399,0.0977,9.7788,0.2108,-0.2610,-5.1546,0.9852,-6.9314,-8.0579
9792,0.0369,0.1038,9.7384,0.2852,-0.2022,-5.2163,0.9754,-6.9098,-8.0301
9800,0.0091,0.0748,9.7433,0.4150,-0.0846,-5.0300,0.9646,-6.8823,-8.0069
9808,-0.0301,0.0434,9.7442,0.1685,-0.0656,-4.8572,0.9538,-6.8549,-7.9838
9816,-0.0469,-0.0819,9.7585,0.3114,-0.0580,-4.6839,0.9431,-6.8275,-7.9608
9824,-0.0535,-0.1343,9.7511,0.1840,0.0986,-4.5369,0.9294,-6.7968,-7.9338
9832,-0.0458,-0.1106,9.7516,0.1289,0.1043,-4.3697,0.9158,-6.7662,-7.9070
9840,-0.0065,-0.0628,9.8003,0.4336,0.0565,-4.0524,0.9042,-6.7397,-7.8837
9848,0.0245,0.0119,9.7807,0.2609,-0.0426,-4.0450,0.8926,-6.7133,-7.8605
9856,0.0403,0.0489,9.7716,0.2878,-0.0414,-3.7686,0.8826,-6.6869,-7.8339
9864,0.0623,0.1021,9.7756,0.1588,0.0158,-3.8696,0.8781,-6.6572,-7.8088
9872,0.0462,0.1356,9.7442,0.5821,0.0972,-4.1021,0.8677,-6.6355,-7.7829
9880,0.0235,0.1686,9.7308,0.6483,0.1750,-4.2926,0.8573,-6.6115,-7.7580
9888,0.0152,0.1348,9.7059,0.5382,0.1747,-4.3733,0.8469,-6.5875,-7.7333
9896,0.0041,0.1251,9.7303,0.5610,0.2651,-4.1705,0.8370,-6.5641,-7.7056
9904,-0.0269,0.0443,9.7091,0.5267,0.3569,-4.1126,0.8267,-6.5363,-7.6825
9912,-0.0318,-0.0119,9.7369,0.4273,0.3033,-3.8759,0.8134,-6.5066,-7.6624
9920,-0.0166,-0.0395,9.7679,0.3109,0.1508,-3.5349,0.8002,-6.4770,-7.6424
9928,-0.0219,0.0617,9.7504,0.1116,0.1489,-3.3875,0.7870,-6.4475,-7.6225
9936,0.0160,0.1628,9.7683,0.1556,0.2538,-3.3158,0.7774,-6.4141,-7.6002
9944,0.0558,0.1851,9.7276,-0.1009,0.4100,-3.6499,0.7678,-6.3809,-7.5779
9952,0.0714,0.1947,9.7577,-0.1329,0.2901,-3.8628,0.7537,-6.3553,-7.5517
9960,0.0859,0.1178,9.7252,-0.3394,0.1728,-3.7837,0.7397,-6.3297,-7.5257
9968,0.0917,0.0966,9.7778,-0.2836,0.3113,-4.0040,0.7258,-6.3043,-7.4997
9976,0.0660,0.0759,9.7398,-0.2463,0.3158,-4.1134,0.7148,-6.2770,-7.4728
9984,0.0482,0.0231,9.7323,-0.1732,0.2160,-4.2500,0.7000,-6.2463,-7.4470
9992,0.0699,-0.0730,9.7957,-0.2794,0.2859,-4.6392,0.6892,-6.2152,-7.4217
10000,0.0490,-0.1363,9.7965,-0.1542,0.1261,-4.8888,0.6784,-6.1843,-7.3966
10008,0.0156,-0.1985,9.8191,-0.0505,0.0693,-4.8182,0.6666,-6.1609,-7.3725
10016,-0.0038,-0.1715,9.8300,-0.0367,0.2363,-5.0493,0.6514,-6.1327,-7.3485
10024,-0.0163,-0.1735,9.8490,0.0005,0.3774,-4.7903,0.6403,-6.1050,-7.3231
10032,-0.0294,-0.1689,9.8561,0.1108,0.5149,-4.8786,0.6307,-6.0775,-7.3038
10040,-0.0532,-0.1925,9.8512,-0.1625,0.5051,-4.7311,0.6211,-6.0501,-7.2845
10048,-0.0742,-0.1524,9.8072,0.1256,0.5171,-4.6086,0.6066,-6.0228,-7.2603
10056,-0.0641,-0.1839,9.7914,0.2437,0.4992,-4.4969,0.5922,-5.9985,-7.2337
10064,-0.0622,-0.1660,9.7931,0.1273,0.2687,-4.2621,0.5788,-5.9714,-7.2122
10072,-0.0573,-0.0815,9.7751,0.1174,0.4270,-4.1815,0.5654,-5.9444,-7.1907
10080,-0.0752,-0.0278,9.7514,-0.1055,0.4424,-4.3898,0.5521,-5.9175,-7.1693
10088,-0.0900,-0.0867,9.8057,-0.0919,0.3451,-4.2743,0.5374,-5.8942,-7.1460
10096,-0.1153,-0.0708,9.7810,-0.1163,0.3107,-4.0625,0.5227,-5.8710,-7.1227
10104,-0.1368,-0.0473,9.7905,0.0657,0.2805,-3.9960,0.5081,-5.8488,-7.0946
10112,-0.1339,-0.1084,9.8000,0.1145,0.1903,-3.7750,0.4936,-5.8267,-7.0666
10120,-0.1359,-0.1041,9.7881,-0.1349,0.2987,-3.1398,0.4825,-5.8013,-7.0427
10128,-0.1508,-0.1471,9.7610,-0.0347,0.4450,-2.6549,0.4685,-5.7764,-7.0183
10136,-0.1762,-0.2320,9.6941,-0.0216,0.2596,-2.3673,0.4596,-5.7477,-6.9950
10144,-0.1764,-0.1731,9.7096,0.0096,0.3463,-2.0843,0.4486,-5.7226,-6.9698
10152,-0.1584,-0.0966,9.7236,-0.0005,0.3865,-1.6723,0.4378,-5.6975,-6.9447
10160,-0.1198,0.0365,9.7618,-0.2689,0.5076,-1.1903,0.4274,-5.6716,-6.9191
10168,-0.0752,0.1550,9.7918,-0.2188,0.3568,-1.2974,0.4122,-5.6472,-6.8927
10176,-0.0791,0.2573,9.7498,-0.2723,0.0579,-1.2718,0.3980,-5.6225,-6.8693
10184,-0.0640,0.2624,9.7613,-0.5528,0.1161,-1.3487,0.3883,-5.6013,-6.8470
10192,-0.0375,0.2055,9.7996,-0.4717,0.2597,-1.5208,0.3787,-5.5802,-6.8248
10200,-0.0208,0.1572,9.8110,-0.4154,0.1891,-1.7255,0.3671,-5.5591,-6.7977
10208,-0.0231,0.0214,9.8281,-0.2763,0.1855,-1.9718,0.3556,-5.5382,-6.7707
10216,-0.0228,0.0786,9.7776,-0.2526,0.1315,-2.3914,0.3382,-5.5129,-6.7423
10224,-0.0413,0.0278,9.7774,-0.1740,0.1491,-2.6006,0.3209,-5.4876,-6.7140
10232,-0.0693,-0.0137,9.7768,-0.2454,0.0326,-2.5287,0.3037,-5.4625,-6.6858
10240,-0.1052,-0.0748,9.7813,-0.7004,0.2252,-2.7559,0.2880,-5.4390,-6.6601
10248,-0.1231,-0.1024,9.7744,-0.3595,0.1188,-2.4452,0.2724,-5.4155,-6.6346
10256,-0.1051,-0.0631,9.7813,-0.4948,0.0996,-2.2361,0.2579,-5.3961,-6.6116
10264,-0.0584,0.0130,9.8291,-0.6749,0.2733,-1.9535,0.2434,-5.3767,-6.5886
10272,-0.0365,0.0522,9.8741,-0.8204,0.2847,-1.9712,0.2315,-5.3520,-6.5633
10280,-0.0396,-0.0011,9.8584,-0.6929,0.3010,-2.0068,0.2172,-5.3329,-6.5405
10288,-0.0532,-0.1299,9.8942,-0.4750,0.3965,-1.9235,0.1946,-5.3093,-6.5144
10296,-0.0519,-0.2065,9.8752,-0.4986,0.4799,-2.0012,0.1780,-5.2913,-6.4878
10304,-0.0598,-0.3208,9.8767,-0.4145,0.5090,-1.6195,0.1616,-5.2733,-6.4614
10312,-0.0657,-0.3099,9.8967,-0.5875,0.4807,-1.1985,0.1487,-5.2485,-6.4380
10320,-0.0390,-0.3110,9.9294,-0.4648,0.4991,-1.1959,0.1334,-5.2263,-6.4136
10328,-0.0641,-0.2696,9.9676,-0.3556,0.5620,-0.7828,0.1157,-5.2017,-6.3894
10336,-0.0167,-0.1967,9.9662,-0.3311,0.4408,-0.8170,0.0982,-5.1772,-6.3652
10344,0.0121,-0.1871,9.9194,-0.2970,0.1329,-0.7031,0.0808,-5.1528,-6.3411
10352,0.0209,-0.1712,9.8930,-0.3764,0.2758,-0.7568,0.0615,-5.1274,-6.3171
10360,0.0151,-0.1486,9.9087,-0.2603,0.1778,-0.4136,0.0423,-5.1022,-6.2932
10368,0.0167,-0.1332,9.9147,-0.0320,0.2334,-0.3973,0.0247,-5.0840,-6.2640
10376,-0.0004,-0.1360,9.9229,-0.1016,0.0919,-0.5391,0.0072,-5.0658,-6.2348
10384,0.0045,-0.1336,9.9226,-0.0482,0.0846,-0.7760,-0.0102,-5.0477,-6.2058
10392,-0.0061,-0.1884,9.8949,0.2748,-0.1491,-1.0238,-0.0304,-5.0277,-6.1832
10400,-0.0011,-0.1232,9.8995,0.2824,-0.1512,-1.3169,-0.0515,-5.0038,-6.1598
10408,-0.0198,-0.1689,9.8704,0.2497,-0.0572,-1.4931,-0.0744,-4.9796,-6.1359
10416,-0.0244,-0.2062,9.8929,0.1437,0.0034,-1.6856,-0.0972,-4.9564,-6.1107
10424,0.0020,-0.1862,9.8603,0.0024,0.0639,-1.7924,-0.1199,-4.9333,-6.0855
10432,0.0080,-0.2018,9.8523,0.0352,0.1218,-1.7585,-0.1370,-4.9098,-6.0624
10440,0.0104,-0.1872,9.8136,0.1653,0.3559,-1.8354,-0.1565,-4.8888,-6.0344
10448,0.0124,-0.2665,9.7990,0.2123,0.3530,-1.6556,-0.1735,-4.8670,-6.0081
10456,0.0426,-0.2503,9.8342,0.2920,0.2756,-1.7503,-0.1903,-4.8452,-5.9818
10464,0.0298,-0.2101,9.7935,0.3335,0.1883,-1.8009,-0.2129,-4.8196,-5.9517
10472,0.0368,-0.1451,9.7877,0.4932,0.1688,-2.0280,-0.2329,-4.8028,-5.9242
10480,0.0287,-0.0785,9.7661,0.4219,0.2781,-2.2078,-0.2553,-4.7837,-5.8943
10488,0.0244,-0.0702,9.7565,0.4097,0.2333,-2.3850,-0.2775,-4.7647,-5.8646
10496,0.0006,0.0293,9.7151,0.2061,0.2758,-2.5732,-0.2996,-4.7457,-5.8350
10504,-0.0460,0.0247,9.6967,0.1340,0.0125,-2.9452,-0.3216,-4.7268,-5.8045
10512,-0.0122,0.0054,9.7051,-0.0442,0.1127,-3.4635,-0.3434,-4.7080,-5.7741
10520,-0.0503,0.0996,9.7364,0.0040,0.1258,-3.6898,-0.3680,-4.6912,-5.7443
10528,-0.0388,0.0873,9.7748,-0.0992,0.3730,-3.6796,-0.3867,-4.6730,-5.7171
10536,-0.0311,0.0817,9.7630,0.1887,0.4147,-3.6778,-0.4052,-4.6549,-5.6900
10544,-0.0397,0.0520,9.7251,0.0561,0.0946,-3.8735,-0.4217,-4.6363,-5.6601
10552,-0.0542,0.1199,9.7372,-0.0788,-0.0728,-3.7752,-0.4429,-4.6130,-5.6279
10560,-0.0428,0.1298,9.7577,0.0430,-0.2089,-3.7799,-0.4639,-4.5985,-5.5968
10568,-0.0074,0.0873,9.7995,-0.1553,-0.1284,-3.9071,-0.4844,-4.5821,-5.5677
10576,-0.0278,0.0489,9.8086,-0.1049,-0.0114,-4.0287,-0.5047,-4.5658,-5.5388
10584,-0.0376,-0.0373,9.8101,0.0660,0.0525,-4.1263,-0.5322,-4.5471,-5.5134
10592,-0.0601,-0.1176,9.8227,-0.0053,-0.0784,-4.0570,-0.5610,-4.5299,-5.4809
10600,-0.0581,-0.1179,9.8688,-0.0388,-0.0250,-3.8041,-0.5872,-4.5103,-5.4460
10608,-0.0518,-0.1532,9.8704,-0.1188,0.0955,-3.5089,-0.6093,-4.4918,-5.4167
10616,-0.0871,-0.1146,9.7876,-0.0433,0.0427,-3.1653,-0.6313,-4.4734,-5.3875
10624,-0.0552,-0.1064,9.8125,-0.0058,0.0509,-2.8073,-0.6531,-4.4550,-5.3585
10632,-0.0473,-0.0180,9.8427,-0.1993,0.1414,-2.0970,-0.6747,-4.4416,-5.3271
10640,-0.0056,0.1148,9.8691,-0.3683,0.0519,-1.9538,-0.6962,-4.4282,-5.2959
10648,0.0217,0.2232,9.8894,-0.3512,-0.0150,-1.9262,-0.7234,-4.4100,-5.2649
10656,0.0341,0.1541,9.9004,-0.1883,-0.0843,-2.2358,-0.7504,-4.3919,-5.2267
10664,0.0439,0.1316,9.8795,-0.0458,-0.1239,-2.4598,-0.7772,-4.3738,-5.1887
10672,0.0255,0.0817,9.8878,0.0959,-0.0204,-2.1780,-0.8010,-4.3563,-5.1577
10680,0.0248,0.0834,9.8749,0.3139,-0.1428,-2.1966,-0.8251,-4.3408,-5.1235
10688,-0.0077,0.1164,9.8950,0.3998,0.0895,-2.0890,-0.8490,-4.3253,-5.0894
10696,-0.0021,0.0925,9.9265,0.4046,-0.0004,-2.3915,-0.8748,-4.3119,-5.0526
10704,-0.0098,0.1638,9.8839,0.3132,0.0283,-2.9314,-0.8979,-4.2922,-5.0150
10712,-0.0162,0.1240,9.8732,0.3005,0.1358,-3.2583,-0.9219,-4.2774,-4.9728
10720,-0.0089,0.1054,9.8999,0.1656,0.1292,-3.3656,-0.9525,-4.2621,-4.9254
10728,-0.0086,0.2178,9.8626,-0.0594,0.0083,-3.2549,-0.9829,-4.2470,-4.8784
10736,-0.0207,0.2248,9.8502,-0.1065,-0.1073,-3.3784,-1.0107,-4.2280,-4.8398
10744,-0.0521,0.2630,9.8363,-0.0395,-0.0606,-3.4564,-1.0388,-4.2110,-4.7977
10752,-0.0682,0.2908,9.8542,-0.2422,-0.0639,-3.7258,-1.0667,-4.1941,-4.7557
10760,-0.0646,0.2480,9.8663,0.0360,-0.0164,-3.7246,-1.0963,-4.1738,-4.7121
10768,-0.0672,0.2221,9.8932,0.1900,0.0904,-3.7129,-1.1258,-4.1536,-4.6687
10776,-0.0773,0.2201,9.8853,0.2600,0.2458,-3.8110,-1.1551,-4.1335,-4.6256
10784,-0.0828,0.2637,9.8671,0.2122,0.1837,-3.8141,-1.1837,-4.1106,-4.5798
10792,-0.0919,0.2573,9.8693,-0.0148,0.3111,-3.7585,-1.2122,-4.0877,-4.5342
10800,-0.0496,0.2018,9.8386,-0.1918,0.4889,-4.0466,-1.2390,-4.0664,-4.4880
10808,-0.0728,0.2422,9.8745,-0.2305,0.4295,-3.9221,-1.2656,-4.0451,-4.4420
10816,-0.1015,0.1899,9.9038,-0.1421,0.4235,-3.6084,-1.2969,-4.0200,-4.3938
10824,-0.1197,0.1782,9.9290,-0.1030,0.5110,-3.3884,-1.3246,-3.9951,-4.3484
10832,-0.1271,0.0701,9.9681,-0.2068,0.4960,-3.0287,-1.3570,-3.9654,-4.3052
10840,-0.1334,0.0798,9.9640,-0.2902,0.5217,-3.0607,-1.3872,-3.9377,-4.2583
10848,-0.1864,0.0799,9.9465,-0.3485,0.6556,-2.8354,-1.4172,-3.9102,-4.2117
10856,-0.1333,0.0485,10.0063,-0.4284,0.6023,-2.6705,-1.4494,-3.8775,-4.1620
10864,-0.1448,0.1919,10.0340,-0.5020,0.7140,-2.5422,-1.4795,-3.8469,-4.1165
10872,-0.1120,0.2232,10.0746,-0.3964,0.5888,-2.5529,-1.5089,-3.8146,-4.0693
10880,-0.1024,0.2370,10.0485,-0.5622,0.7838,-2.0724,-1.5381,-3.7823,-4.0224
10888,-0.0919,0.3251,10.0849,0.0820,0.3996,-1.9409,-1.5671,-3.7503,-3.9758
10896,-0.0883,0.3073,10.0906,-0.0166,0.2641,-2.4285,-1.5964,-3.7154,-3.9304
10904,-0.0736,0.3318,10.0374,0.1904,0.2120,-2.2921,-1.6255,-3.6808,-3.8853
10912,-0.0982,0.3516,9.9884,0.3217,0.1407,-2.1563,-1.6496,-3.6377,-3.8380
10920,-0.0921,0.4334,10.0091,0.4472,0.0993,-2.4425,-1.6735,-3.5948,-3.7910
10928,-0.0552,0.4199,10.0284,0.7753,0.1130,-2.5242,-1.6972,-3.5521,-3.7443
10936,-0.0524,0.4318,10.0203,0.7450,-0.0552,-2.5063,-1.7227,-3.5078,-3.7031
10944,-0.0662,0.5114,9.9970,0.8733,0.0132,-2.5931,-1.7500,-3.4657,-3.6652
10952,-0.0190,0.4950,10.0124,0.9054,0.3400,-2.7322,-1.7722,-3.4151,-3.6260
10960,-0.0091,0.4374,9.9662,0.5708,0.4072,-2.8545,-1.7943,-3.3649,-3.5870
10968,-0.0239,0.3907,9.9668,0.5601,0.6794,-2.9449,-1.8162,-3.3188,-3.5507
10976,-0.0326,0.3170,9.9764,0.6859,0.5744,-3.1352,-1.8385,-3.2672,-3.5200
10984,-0.0347,0.2554,9.9714,0.6675,0.7247,-3.1652,-1.8596,-3.2208,-3.4894
10992,-0.0283,0.1928,9.9496,0.8553,0.7084,-2.6073,-1.8791,-3.1776,-3.4630
11000,-0.0202,0.1457,9.9668,0.9761,0.0661,-2.5804,-1.8984,-3.1347,-3.4367
11008,0.0103,0.0958,9.9855,1.2757,-0.4174,-2.5227,-1.9201,-3.0857,-3.4116
11016,0.0037,0.0798,9.9245,1.4929,-0.3758,-2.2516,-1.9386,-3.0337,-3.3862
11024,0.0556,0.1473,9.9099,1.1592,-0.3973,-2.0616,-1.9551,-2.9864,-3.3624
11032,0.1112,0.2977,9.9163,0.9175,-0.1592,-2.0132,-1.9715,-2.9394,-3.3389
11040,0.1593,0.4319,9.8537,1.0623,-0.3502,-1.7963,-1.9877,-2.8926,-3.3154
11048,0.1841,0.4113,9.8777,1.2941,-0.4368,-1.5463,-2.0057,-2.8457,-3.2999
11056,0.1838,0.4149,9.8275,1.4411,-0.4770,-1.7605,-2.0236,-2.7991,-3.2846
11064,0.1912,0.3357,9.8494,1.3630,-0.4061,-2.0693,-2.0370,-2.7586,-3.2761
11072,0.1329,0.2678,9.8930,0.8350,-0.1996,-2.1086,-2.0503,-2.7184,-3.2678
11080,0.0932,0.1229,9.8900,0.8635,0.0005,-2.3915,-2.0649,-2.6731,-3.2548
11088,0.0915,0.1162,9.8860,0.8987,0.2905,-2.7234,-2.0823,-2.6363,-3.2438
11096,0.0531,0.0481,9.9115,0.8950,-0.1042,-2.5635,-2.0972,-2.5998,-3.2306
11104,0.0871,0.0294,10.0020,0.5661,-0.3882,-3.1332,-2.1128,-2.5611,-3.2208
11112,0.0969,0.0511,9.9691,0.5690,-0.1185,-3.6139,-2.1284,-2.5227,-3.2112
11120,0.1331,0.0735,9.9689,0.3424,-0.2046,-3.8870,-2.1400,-2.4840,-3.2080
11128,0.1413,0.0104,9.9838,0.1710,-0.5643,-3.9295,-2.1524,-2.4480,-3.2073
11136,0.1268,-0.0084,10.0150,0.6445,-0.6336,-4.2768,-2.1652,-2.4128,-3.2004
11144,0.1538,-0.0322,9.9225,0.4732,-0.2945,-4.4223,-2.1711,-2.3816,-3.1970
11152,0.1086,-0.1905,9.8566,0.4402,-0.3916,-4.5720,-2.1770,-2.3507,-3.1937
11160,0.0703,-0.2198,9.7975,0.0299,-0.3751,-4.7845,-2.1905,-2.3166,-3.1924
11168,0.0549,-0.2887,9.7704,0.3308,-0.1940,-4.9611,-2.2038,-2.2828,-3.1912
11176,0.0404,-0.2809,9.7103,0.5466,-0.2208,-4.9886,-2.2147,-2.2516,-3.1925
11184,0.0433,-0.3822,9.7498,0.3530,-0.0331,-5.1563,-2.2254,-2.2207,-3.1939
11192,0.0095,-0.3204,9.7841,0.2079,0.1891,-4.9326,-2.2361,-2.1899,-3.1954
11200,0.0376,-0.3369,9.8293,0.3224,0.3109,-4.5054,-2.2480,-2.1604,-3.1998
11208,0.0366,-0.1856,9.7955,0.1386,0.5153,-4.2568,-2.2599,-2.1310,-3.2043
11216,0.0490,-0.1584,9.7517,0.4508,0.4388,-4.2138,-2.2674,-2.1053,-3.2074
11224,0.0269,-0.1748,9.6898,0.2507,0.4217,-4.3940,-2.2747,-2.0797,-3.2106
11232,0.0201,-0.1259,9.7308,0.2273,0.6959,-4.4623,-2.2887,-2.0534,-3.2153
11240,0.0058,-0.1154,9.7132,0.5490,0.6276,-4.6823,-2.2993,-2.0273,-3.2186
11248,-0.0249,-0.0106,9.6991,0.6113,0.7168,-4.5167,-2.3102,-2.0004,-3.2229
11256,-0.0368,-0.0261,9.6927,0.7828,0.8422,-4.3690,-2.3200,-1.9713,-3.2273
11264,-0.0594,-0.0769,9.6382,0.6349,0.9567,-4.7797,-2.3298,-1.9424,-3.2318
11272,-0.0853,-0.0706,9.6294,0.6560,0.8983,-4.9832,-2.3375,-1.9133,-3.2353
11280,-0.0641,0.0249,9.6019,0.6923,0.8370,-4.8204,-2.3423,-1.8872,-3.2456
11288,-0.0677,-0.0272,9.6029,0.5190,0.8905,-4.8487,-2.3514,-1.8632,-3.2517
11296,-0.0308,0.0446,9.6421,0.4226,1.1469,-4.9638,-2.3603,-1.8395,-3.2577
11304,-0.0285,0.0836,9.6362,0.4237,0.9415,-5.4259,-2.3692,-1.8159,-3.2638
11312,0.0201,0.0409,9.6873,0.5314,0.6703,-5.9611,-2.3765,-1.7915,-3.2723
11320,0.0067,0.0816,9.6870,0.4665,0.3604,-6.3768,-2.3837,-1.7673,-3.2808
11328,-0.0086,-0.1034,9.6991,0.3190,0.3840,-6.7798,-2.3900,-1.7443,-3.2845
11336,-0.0817,-0.1510,9.6959,0.3700,0.2413,-6.6557,-2.3961,-1.7214,-3.2883
11344,-0.1027,-0.2547,9.7131,-0.0265,0.0648,-6.9478,-2.4022,-1.6987,-3.2921
11352,-0.1619,-0.1576,9.6999,0.0956,-0.2640,-6.7924,-2.4110,-1.6757,-3.3013
11360,-0.1607,-0.1996,9.6761,0.1163,-0.3704,-6.4172,-2.4179,-1.6557,-3.3090
11368,-0.1551,-0.2458,9.6455,-0.0318,-0.5708,-5.8717,-2.4242,-1.6355,-3.3229
11376,-0.1573,-0.2221,9.6611,0.2105,-0.6078,-5.4941,-2.4353,-1.6178,-3.3301
11384,-0.1311,-0.1226,9.6779,0.2023,-0.4085,-4.6423,-2.4462,-1.6002,-3.3373
11392,-0.1206,-0.0555,9.6736,0.1037,-0.5406,-3.7985,-2.4504,-1.5751,-3.3436
11400,-0.0696,0.1520,9.7092,0.1134,-0.5469,-3.4368,-2.4569,-1.5550,-3.3523
11408,-0.0572,0.3169,9.6882,-0.2372,-0.5690,-3.4563,-2.4628,-1.5370,-3.3638
11416,-0.0632,0.2726,9.6929,-0.1672,-0.4060,-3.6217,-2.4686,-1.5191,-3.3754
11424,-0.0528,0.2289,9.7277,-0.3216,-0.5756,-3.6438,-2.4764,-1.4980,-3.3854
11432,-0.0265,0.1979,9.7486,-0.1306,-0.8470,-3.5262,-2.4840,-1.4770,-3.3955
11440,-0.0213,0.1945,9.7653,0.0760,-0.9653,-3.1792,-2.4901,-1.4538,-3.4099
11448,0.0111,0.2816,9.8110,-0.0837,-1.3023,-3.0019,-2.4962,-1.4308,-3.4243
11456,-0.0042,0.1150,9.7648,-0.1244,-1.1953,-2.8991,-2.5022,-1.4080,-3.4386
11464,0.0016,0.1509,9.7166,-0.0060,-0.8663,-2.5262,-2.5086,-1.3896,-3.4539
11472,-0.0037,0.1192,9.7323,0.0325,-0.8264,-1.6815,-2.5149,-1.3713,-3.4692
11480,0.0029,0.1711,9.7086,0.2907,-0.5082,-1.0845,-2.5207,-1.3537,-3.4825
11488,0.0052,0.1229,9.7519,0.0949,-0.4840,-1.1189,-2.5260,-1.3358,-3.4928
11496,-0.0300,0.0879,9.7615,0.1024,-0.5034,-0.9171,-2.5312,-1.3179,-3.5032
11504,-0.0760,0.2216,9.7086,0.4295,-0.4234,-0.7668,-2.5397,-1.3041,-3.5136
11512,-0.0548,0.1681,9.7505,0.3397,-0.2055,-1.0151,-2.5471,-1.2866,-3.5273
11520,-0.0301,0.0992,9.7766,0.1765,0.0882,-0.7938,-2.5526,-1.2672,-3.5438
11528,-0.0601,0.0187,9.7023,0.2310,-0.0309,-0.4836,-2.5609,-1.2538,-3.5574
11536,-0.0828,-0.0551,9.7366,0.2272,0.0445,-0.1656,-2.5691,-1.2405,-3.5710
11544,-0.0568,-0.1893,9.7763,0.2662,0.2419,-0.0935,-2.5749,-1.2258,-3.5846
11552,-0.0470,-0.2971,9.7539,0.1382,0.0387,-0.0673,-2.5753,-1.2157,-3.6000
11560,-0.0540,-0.2607,9.7933,0.4131,-0.0249,0.1125,-2.5824,-1.2037,-3.6135
11568,-0.0590,-0.2979,9.8404,0.6200,0.0102,0.6045,-2.5875,-1.1889,-3.6288
11576,-0.0749,-0.2792,9.8438,0.6871,0.1291,0.4989,-2.5925,-1.1742,-3.6441
11584,-0.0788,-0.3233,9.8032,0.5647,0.1175,0.6566,-2.5975,-1.1597,-3.6594
11592,-0.0610,-0.1828,9.8561,0.3196,0.0264,0.4287,-2.6025,-1.1467,-3.6780
11600,-0.0544,-0.1614,9.8366,0.1919,0.0273,0.4241,-2.6074,-1.1339,-3.6965
11608,-0.0593,-0.1634,9.8163,0.1445,-0.3612,0.3425,-2.6122,-1.1212,-3.7149
11616,-0.0424,-0.3174,9.8593,0.1924,-0.5300,0.3230,-2.6136,-1.1095,-3.7309
11624,-0.0244,-0.2777,9.8664,-0.1084,-0.1154,0.2351,-2.6150,-1.0979,-3.7469
11632,-0.0235,-0.3037,9.8746,-0.2280,-0.3937,0.2203,-2.6197,-1.0903,-3.7627
11640,-0.0278,-0.3350,9.8967,-0.3051,-0.5637,0.0355,-2.6219,-1.0804,-3.7800
11648,-0.0549,-0.2567,9.8683,-0.2108,-0.7050,0.1041,-2.6241,-1.0706,-3.7972
11656,-0.0152,-0.3913,9.8836,-0.0593,-0.8695,0.2231,-2.6277,-1.0556,-3.8105
11664,-0.0366,-0.3637,9.8729,-0.3651,-0.8107,0.2222,-2.6279,-1.0503,-3.8257
11672,-0.0797,-0.3283,9.8359,-0.6442,-0.8639,0.0960,-2.6295,-1.0426,-3.8384
11680,-0.1251,-0.1741,9.7901,-0.7457,-0.7681,0.1220,-2.6329,-1.0366,-3.8578
11688,-0.1352,-0.2405,9.8028,-0.9895,-0.6551,0.1975,-2.6363,-1.0306,-3.8771
11696,-0.1306,-0.2432,9.7082,-0.8519,-0.4671,0.0884,-2.6431,-1.0213,-3.8949
11704,-0.1192,-0.2452,9.7388,-0.7924,-0.8899,0.2987,-2.6469,-1.0150,-3.9146
11712,-0.1344,-0.1759,9.7004,-0.7461,-0.6196,0.3691,-2.6506,-1.0087,-3.9342
11720,-0.1304,-0.2635,9.7185,-0.6272,-0.3932,0.5939,-2.6524,-1.0055,-3.9494
11728,-0.1208,-0.2554,9.7736,-0.5882,-0.3393,0.4567,-2.6542,-1.0023,-3.9645
11736,-0.1026,-0.2198,9.7560,-0.3482,-0.3144,0.7336,-2.6559,-0.9992,-3.9796
11744,-0.1294,-0.1775,9.6809,-0.2333,-0.2639,0.8917,-2.6619,-0.9894,-3.9950
11752,-0.0840,-0.1170,9.7551,-0.2435,-0.4690,0.9656,-2.6678,-0.9797,-4.0105
11760,-0.0579,-0.1268,9.7985,-0.3546,-0.1638,1.0308,-2.6732,-0.9735,-4.0301
11768,-0.0311,-0.1249,9.7872,-0.4235,-0.0052,1.1359,-2.6785,-0.9673,-4.0497
11776,-0.0078,-0.0661,9.8303,-0.6467,-0.1576,1.3591,-2.6819,-0.9617,-4.0664
11784,0.0361,-0.0480,9.8288,-0.5828,-0.5620,1.3112,-2.6901,-0.9552,-4.0853
11792,0.0886,0.0612,9.8378,-0.2390,-0.6341,1.3400,-2.6991,-0.9512,-4.1042
11800,0.1065,0.1255,9.9034,-0.9076,-0.3216,1.0210,-2.7004,-0.9502,-4.1235
11808,0.1400,0.1048,9.8945,-0.8270,-0.0629,1.1451,-2.7017,-0.9492,-4.1428
11816,0.1224,0.0780,9.9032,-0.6885,0.1633,1.4506,-2.7030,-0.9444,-4.1586
11824,0.0792,0.0236,9.8906,-0.6815,-0.1672,1.8120,-2.7047,-0.9430,-4.1757
11832,0.0388,-0.0502,9.8911,-0.7120,-0.1551,2.0216,-2.7054,-0.9393,-4.1919
11840,0.0108,-0.1184,9.8355,-0.4293,-0.2903,2.1500,-2.7060,-0.9357,-4.2079
11848,-0.0322,-0.0858,9.7464,-0.4522,-0.0996,2.4568,-2.7067,-0.9321,-4.2240
11856,-0.0124,-0.1296,9.7433,-0.3729,-0.0025,2.5316,-2.7078,-0.9291,-4.2418
11864,-0.0127,-0.1720,9.7632,-0.3343,-0.1790,2.9364,-2.7088,-0.9261,-4.2596
11872,0.0098,-0.1894,9.8214,-0.5000,-0.3105,3.2835,-2.7098,-0.9294,-4.2792
11880,-0.0195,-0.2512,9.7915,-0.3519,-0.1828,3.6154,-2.7108,-0.9328,-4.2988
11888,-0.0328,-0.2952,9.7896,-0.1382,-0.4581,3.9381,-2.7118,-0.9362,-4.3183
11896,-0.0599,-0.3633,9.7901,-0.0539,-0.4627,4.4201,-2.7142,-0.9381,-4.3357
11904,-0.0752,-0.3771,9.7568,-0.0933,-0.4511,5.0676,-2.7151,-0.9426,-4.3517
11912,-0.0846,-0.3991,9.7887,-0.1229,-0.5147,5.6548,-2.7183,-0.9437,-4.3676
11920,-0.1318,-0.2842,9.7478,-0.1299,-0.4634,5.8377,-2.7216,-0.9448,-4.3835
11928,-0.0756,-0.2358,9.7746,0.1060,-0.3825,5.8899,-2.7228,-0.9441,-4.3973
11936,-0.0344,-0.1702,9.7847,-0.0336,-0.3690,5.9638,-2.7231,-0.9506,-4.4092
11944,-0.0285,-0.1832,9.7912,0.3074,-0.5882,6.1945,-2.7263,-0.9543,-4.4272
11952,-0.0127,-0.2610,9.7528,0.2523,-0.7044,6.2231,-2.7299,-0.9570,-4.4433
11960,0.0180,-0.3201,9.7272,0.1862,-0.7382,6.1678,-2.7334,-0.9598,-4.4593
11968,-0.0362,-0.3475,9.7687,0.2830,-0.8105,6.2696,-2.7321,-0.9602,-4.4743
11976,-0.0520,-0.3478,9.8318,0.2022,-0.7944,6.8283,-2.7366,-0.9602,-4.4873
11984,-0.1028,-0.3813,9.8251,0.2370,-0.8509,7.3198,-2.7376,-0.9598,-4.5021
11992,-0.1345,-0.3487,9.8404,0.2276,-0.6410,7.6512,-2.7387,-0.9594,-4.5169
12000,-0.1169,-0.2445,9.8502,0.1119,-0.6749,8.0881,-2.7397,-0.9590,-4.5316
12008,-0.1068,-0.1986,9.8336,0.1693,-0.6860,8.3272,-2.7359,-0.9654,-4.5468
12016,-0.1405,-0.2184,9.8272,0.3548,-0.6993,8.4412,-2.7320,-0.9718,-4.5618
12024,-0.1272,-0.2824,9.7949,0.2656,-0.4080,8.3049,-2.7301,-0.9734,-4.5735
12032,-0.1467,-0.2834,9.8049,0.3163,-0.2921,8.5932,-2.7282,-0.9751,-4.5851
12040,-0.1401,-0.3339,9.8372,0.3460,-0.2960,8.8183,-2.7248,-0.9820,-4.6005
12048,-0.1433,-0.3323,9.8287,0.3905,-0.1663,8.9535,-2.7243,-0.9885,-4.6082
12056,-0.1981,-0.3613,9.8277,0.3984,-0.2237,8.9441,-2.7238,-0.9936,-4.6245
12064,-0.1666,-0.4332,9.8569,0.2432,-0.3585,9.1884,-2.7198,-1.0026,-4.6406
12072,-0.1978,-0.6644,9.8478,0.2016,-0.3568,9.6008,-2.7159,-1.0115,-4.6567
12080,-0.2228,-0.9032,9.8241,0.1004,-0.4805,10.1844,-2.7139,-1.0181,-4.6680
12088,-0.2705,-0.9249,9.7653,0.1769,-0.5054,10.5292,-2.7109,-1.0256,-4.6792
12096,-0.2408,-1.0934,9.6606,0.3115,-0.5026,10.9016,-2.6998,-1.0360,-4.6890
12104,-0.1010,-1.2887,9.8351,0.2828,-0.5426,10.9270,-2.6949,-1.0436,-4.7082
12112,-0.0427,-1.2728,9.8591,0.2820,-0.5061,10.8820,-2.6900,-1.0512,-4.7274
12120,0.0022,-1.2483,9.8193,0.2706,-0.4420,10.7696,-2.6866,-1.0621,-4.7446
12128,0.0647,-1.1479,9.8402,0.1958,-0.3566,10.7421,-2.6831,-1.0730,-4.7617
12136,-0.1137,-0.9176,9.5065,0.2521,-0.3709,10.7532,-2.6791,-1.0844,-4.7758
12144,-0.0297,-0.9387,9.6519,0.2847,-0.3287,10.7077,-2.6752,-1.0958,-4.7899
12152,0.0386,-0.3913,9.9980,0.2412,-0.2643,10.7763,-2.6712,-1.1072,-4.8039
12160,0.0786,-0.3327,10.0279,0.0023,-0.2480,10.5565,-2.6634,-1.1120,-4.8208
12168,0.0181,-0.1216,9.7652,0.1125,-0.3124,10.3997,-2.6556,-1.1167,-4.8375
12176,0.0400,-0.1848,9.8441,-0.1235,-0.2994,10.0898,-2.6483,-1.1257,-4.8537
12184,-0.0059,-0.0357,9.4491,-0.0878,-0.2976,9.8200,-2.6410,-1.1348,-4.8699
12192,0.0078,-0.1808,9.5785,-0.1124,-0.3172,9.6581,-2.6356,-1.1458,-4.8831
12200,-0.0550,-0.1036,9.4269,-0.0505,-0.2666,9.5566,-2.6331,-1.1505,-4.8972
12208,-0.1852,0.0224,9.2656,-0.0447,-0.2769,9.3795,-2.6291,-1.1582,-4.9074
12216,-0.1208,-0.1023,9.3278,0.0275,-0.2761,9.1568,-2.6256,-1.1692,-4.9156
12224,-0.0916,-0.0831,9.3668,0.0220,-0.2726,8.7145,-2.6221,-1.1801,-4.9238
12232,-0.0853,-0.0944,9.4098,0.1259,-0.3173,8.4863,-2.6148,-1.1854,-4.9363
12240,-0.0768,-0.0836,9.4519,0.0627,-0.3147,8.0947,-2.6103,-1.1940,-4.9492
12248,-0.0861,-0.0735,9.4859,0.1596,-0.3523,7.7682,-2.6058,-1.2098,-4.9630
12256,-0.0976,0.0100,9.5235,0.2575,-0.2708,7.3573,-2.6014,-1.2255,-4.9767
12264,-0.0766,-0.0070,9.5456,0.2552,-0.3396,6.8337,-2.5969,-1.2413,-4.9904
12272,-0.0740,-0.0715,9.5570,0.6903,-0.2747,6.6131,-2.5915,-1.2484,-4.9997
12280,-0.0711,-0.0397,9.5692,0.7011,-0.2153,6.2687,-2.5861,-1.2555,-5.0089
12288,-0.0627,-0.0223,9.5870,0.5727,-0.3078,5.9821,-2.5783,-1.2603,-5.0201
12296,-0.0755,0.0148,9.6000,0.1993,-0.2550,5.6653,-2.5705,-1.2651,-5.0311
12304,-0.0397,-0.0340,9.8426,0.6662,-0.3031,5.2664,-2.5627,-1.2698,-5.0422
12312,-0.0010,0.0903,9.5912,-1.5326,-0.2665,4.6716,-2.5582,-1.2770,-5.0522
12320,-0.0110,0.2620,9.7604,-1.5687,-0.2741,4.3402,-2.5543,-1.2823,-5.0650
12328,-0.0229,0.2630,9.8010,-1.5284,-0.2974,4.1032,-2.5494,-1.2914,-5.0744
12336,-0.0172,0.2548,9.7968,-1.4900,-0.3677,3.9913,-2.5440,-1.3005,-5.0838
12344,-0.0334,0.2250,9.8326,-1.3439,-0.2723,3.8256,-2.5386,-1.3077,-5.0970
12352,-0.0290,0.1972,9.8190,-1.2522,-0.2450,3.7098,-2.5360,-1.3149,-5.1092
12360,-0.0386,0.1802,9.8021,-1.2045,-0.2215,3.4018,-2.5321,-1.3240,-5.1193
12368,-0.0150,0.1639,9.8160,-1.1562,-0.2578,3.2912,-2.5286,-1.3302,-5.1347
12376,-0.0087,0.1487,9.8195,-1.1473,-0.1992,3.1668,-2.5251,-1.3365,-5.1501
12384,-0.0116,0.1309,9.8089,-1.1149,-0.2017,2.9758,-2.5187,-1.3442,-5.1639
12392,-0.0020,0.1238,9.8135,-1.1265,-0.1402,2.9558,-2.5124,-1.3519,-5.1777
12400,0.0026,0.1129,9.8177,-1.1963,-0.1800,2.6968,-2.5108,-1.3553,-5.1895
12408,-0.0082,0.0998,9.8269,-1.1324,-0.1194,2.7103,-2.5092,-1.3587,-5.2012
12416,-0.0126,0.0866,9.8298,-1.0712,-0.0935,2.6486,-2.5076,-1.3621,-5.2130
12424,-0.0151,0.0747,9.8296,-1.0101,-0.1540,2.4697,-2.5031,-1.3717,-5.2232
12432,-0.0074,0.0584,9.8172,-0.9490,-0.1959,2.2798,-2.4987,-1.3814,-5.2334
12440,-0.0009,0.0410,9.8306,-0.9359,-0.2386,2.1277,-2.4899,-1.3891,-5.2454
12448,-0.0087,0.0311,9.8367,-0.9073,-0.1515,2.0035,-2.4845,-1.3978,-5.2545
12456,-0.0221,0.0244,9.8264,-0.8320,-0.1162,2.0180,-2.4791,-1.4064,-5.2636
12464,-0.0178,0.0148,9.8225,-0.7920,-0.1144,2.0000,-2.4761,-1.4180,-5.2770
12472,-0.0076,0.0124,9.8185,-0.7351,-0.2460,2.0947,-2.4693,-1.4266,-5.2883
12480,-0.0138,0.0066,9.8112,-0.7393,-0.2705,1.9506,-2.4639,-1.4338,-5.2982
12488,-0.0008,-0.0082,9.8074,-0.6554,-0.3740,1.9488,-2.4571,-1.4411,-5.3105
12496,-0.0008,-0.0007,9.8117,-0.6311,-0.2142,1.8378,-2.4503,-1.4483,-5.3227
12504,-0.0018,0.0048,9.8069,-0.5492,-0.2428,1.7556,-2.4439,-1.4588,-5.3319
12512,-0.0081,-0.0021,9.8044,-0.5643,-0.2728,1.6130,-2.4395,-1.4636,-5.3455
12520,-0.0047,0.0035,9.8089,-0.5787,-0.3175,1.5566,-2.4299,-1.4713,-5.3546
12528,0.0047,0.0054,9.8012,-0.5177,-0.3069,1.4627,-2.4260,-1.4852,-5.3695
12536,0.0096,-0.0034,9.8084,-0.4621,-0.3101,1.3090,-2.4221,-1.4991,-5.3843
12544,0.0286,-0.0168,9.8121,-0.4383,-0.4038,1.2259,-2.4182,-1.5129,-5.3990
12552,0.0408,-0.0120,9.8064,-0.4155,-0.3788,1.1571,-2.4114,-1.5215,-5.4109
12560,0.0414,-0.0151,9.8135,-0.3111,-0.4962,1.2087,-2.4047,-1.5300,-5.4226
12568,0.0560,-0.0146,9.8167,-0.2405,-0.4618,0.9940,-2.3979,-1.5386,-5.4343
12576,0.0478,-0.0055,9.8151,-0.2531,-0.5142,0.9621,-2.3931,-1.5462,-5.4503
12584,0.0577,-0.0037,9.8095,-0.2357,-0.4737,0.8729,-2.3883,-1.5538,-5.4662
12592,0.0394,-0.0084,9.8095,-0.1631,-0.4936,0.7982,-2.3787,-1.5642,-5.4797
12600,0.0332,-0.0145,9.8163,-0.1471,-0.5019,0.6602,-2.3768,-1.5718,-5.4907
12608,0.0249,-0.0164,9.8133,-0.1557,-0.4139,0.7761,-2.3748,-1.5794,-5.5017
12616,0.0229,-0.0162,9.8084,-0.1853,-0.3645,0.7617,-2.3638,-1.5822,-5.5102
12624,0.0074,-0.0161,9.8126,-0.2322,-0.4398,0.8172,-2.3619,-1.5888,-5.5225
12632,0.0111,-0.0228,9.8132,-0.2851,-0.5119,0.8410,-2.3571,-1.5992,-5.5334
12640,0.0031,-0.0244,9.8128,-0.2130,-0.6261,0.8184,-2.3480,-1.6101,-5.5437
12648,0.0059,-0.0285,9.8229,-0.2268,-0.6873,0.6741,-2.3390,-1.6210,-5.5540
12656,0.0180,-0.0231,9.8116,-0.2346,-0.6232,0.6322,-2.3314,-1.6305,-5.5618
12664,0.0148,-0.0109,9.8169,-0.1860,-0.5699,0.5681,-2.3271,-1.6375,-5.5697
12672,0.0114,-0.0136,9.8148,-0.1529,-0.5563,0.6401,-2.3229,-1.6445,-5.5774
12680,0.0084,-0.0219,9.8233,-0.1293,-0.5939,0.6663,-2.3167,-1.6511,-5.5880
12688,0.0193,-0.0194,9.8138,-0.1840,-0.6139,0.5846,-2.3106,-1.6576,-5.5986
12696,0.0147,-0.0195,9.8075,-0.1670,-0.6757,0.6906,-2.3044,-1.6642,-5.6091
12704,0.0245,-0.0227,9.8040,-0.1348,-0.5907,0.6692,-2.2983,-1.6717,-5.6187
12712,0.0275,-0.0315,9.7981,-0.0853,-0.4669,0.5875,-2.2922,-1.6792,-5.6281
12720,0.0212,-0.0341,9.7914,-0.0699,-0.3377,0.4693,-2.2885,-1.6857,-5.6419
12728,0.0154,-0.0409,9.7872,-0.0419,-0.3236,0.4150,-2.2848,-1.6922,-5.6556
12736,0.0093,-0.0371,9.7847,-0.1058,-0.2141,0.4030,-2.2801,-1.7035,-5.6635
12744,0.0146,-0.0391,9.7852,-0.0949,-0.2373,0.3516,-2.2740,-1.7110,-5.6737
12752,0.0013,-0.0418,9.7852,-0.1218,-0.2222,0.3717,-2.2713,-1.7184,-5.6840
12760,-0.0053,-0.0392,9.7830,-0.1449,-0.2371,0.4230,-2.3894,-1.7259,-5.6941
12768,-0.0104,-0.0442,9.7919,-0.1189,-0.2807,0.5280,-2.3848,-1.7305,-5.7038
12776,-0.0182,-0.0373,9.7949,-0.1021,-0.2771,0.5857,-2.3736,-1.7417,-5.7129
12784,-0.0116,-0.0316,9.7917,-0.0567,-0.4416,0.6356,-2.3628,-1.7491,-5.7197
12792,-0.0088,-0.0377,9.7938,-0.0346,-0.4175,0.6194,-2.3530,-1.7565,-5.7297
12800,-0.0121,-0.0401,9.7907,-0.0881,-0.3546,0.6331,-2.3428,-1.7639,-5.7397
12808,-0.0079,-0.0528,9.7838,-0.1473,-0.3584,0.5290,-2.3322,-1.7713,-5.7496
12816,-0.0045,-0.0505,9.7844,-0.1000,-0.3753,0.5173,-2.3206,-1.7796,-5.7557
12824,0.0021,-0.0503,9.8009,-0.0866,-0.4022,0.4609,-2.3086,-1.7880,-5.7618
12832,0.0232,-0.0543,9.8085,-0.0526,-0.4225,0.4523,-2.2976,-1.7968,-5.7683
12840,0.0063,-0.0555,9.8113,-0.0973,-0.3940,0.3880,-2.2862,-1.8055,-5.7748
12848,0.0106,-0.0676,9.8102,-0.0735,-0.4894,0.3612,-2.2744,-1.8143,-5.7813
12856,0.0081,-0.0658,9.8065,0.0107,-0.4953,0.3409,-2.2636,-1.8245,-5.7901
12864,0.0132,-0.0605,9.7976,-0.0182,-0.5036,0.2975,-2.2510,-1.8346,-5.8022
12872,0.0122,-0.0589,9.8006,0.0396,-0.4688,0.2081,-2.2375,-1.8405,-5.8138
12880,0.0087,-0.0584,9.8018,0.1001,-0.4703,0.1811,-2.2236,-1.8463,-5.8254
12888,0.0009,-0.0542,9.8066,0.0754,-0.5010,0.1207,-2.2127,-1.8522,-5.8369
12896,-0.0029,-0.0501,9.8119,0.1077,-0.5064,0.1350,-2.2004,-1.8614,-5.8426
12904,0.0013,-0.0522,9.8162,0.1306,-0.4289,0.0953,-2.1915,-1.8700,-5.8498
12912,-0.0012,-0.0486,9.8096,0.0965,-0.4774,-0.0041,-2.1775,-1.8816,-5.8516
12920,0.0002,-0.0445,9.8160,0.0532,-0.5451,-0.0830,-2.1632,-1.8931,-5.8535
12928,-0.0086,-0.0472,9.8112,0.0092,-0.5166,-0.0652,-2.1485,-1.9045,-5.8601
12936,-0.0134,-0.0446,9.8165,0.0417,-0.5720,-0.0002,-2.1382,-1.9155,-5.8672
12944,-0.0154,-0.0450,9.8226,0.0595,-0.4702,-0.1007,-2.1237,-1.9198,-5.8728
12952,-0.0323,-0.0448,9.8214,0.0019,-0.3490,-0.0421,-2.1088,-1.9241,-5.8784
12960,-0.0193,-0.0406,9.8211,0.0507,-0.2650,-0.0420,-2.0937,-1.9284,-5.8840
12968,-0.0171,-0.0441,9.8218,0.1321,-0.1634,0.0246,-2.0786,-1.9370,-5.8900
12976,-0.0102,-0.0404,9.8284,0.0606,-0.2848,0.0111,-2.0632,-1.9455,-5.8960
12984,-0.0139,-0.0366,9.8215,0.0829,-0.2757,0.0594,-2.0437,-1.9545,-5.9024
12992,-0.0263,-0.0346,9.8236,0.0429,-0.2402,0.0017,-2.0239,-1.9635,-5.9088
13000,-0.0203,-0.0272,9.8190,0.0233,-0.2490,-0.0349,-2.0038,-1.9725,-5.9152
13008,-0.0171,-0.0370,9.8131,0.0846,-0.2441,-0.0058,-1.9862,-1.9834,-5.9244
13016,-0.0206,-0.0285,9.8059,0.0418,-0.2260,0.0993,-1.9640,-1.9899,-5.9331
13024,-0.0261,-0.0309,9.8085,0.0863,-0.1901,0.1251,-1.9468,-2.0008,-5.9389
13032,-0.0228,-0.0348,9.8063,0.0461,-0.2224,0.1525,-1.9293,-2.0116,-5.9447
13040,-0.0253,-0.0270,9.8138,-0.0723,-0.1226,0.0880,-1.9110,-2.0181,-5.9543
13048,-0.0266,-0.0396,9.8243,-0.0495,-0.1686,0.1330,-1.8915,-2.0246,-5.9614
13056,-0.0324,-0.0317,9.8252,-0.0491,-0.1031,0.1014,-1.8707,-2.0354,-5.9738
13064,-0.0408,-0.0306,9.8241,-0.0433,-0.1152,0.1165,-1.8511,-2.0461,-5.9818
13072,-0.0348,-0.0369,9.8318,-0.0085,-0.0388,-0.0158,-1.8312,-2.0569,-5.9898
13080,-0.0321,-0.0289,9.8369,0.0728,-0.0511,0.0151,-1.8134,-2.0623,-5.9968
13088,-0.0291,-0.0248,9.8243,0.0359,-0.0095,0.0046,-1.7953,-2.0678,-6.0038
13096,-0.0374,-0.0175,9.8119,0.0406,-0.0150,-0.0241,-1.7813,-2.0713,-6.0160
13104,-0.0353,-0.0163,9.8121,0.0185,-0.0443,0.0658,-1.7669,-2.0749,-6.0281
13112,-0.0448,-0.0262,9.8105,-0.0027,-0.1257,-0.0748,-1.7523,-2.0785,-6.0402
13120,-0.0452,-0.0202,9.8063,0.0277,-0.1475,-0.0467,-1.7294,-2.0882,-6.0523
13128,-0.0488,-0.0238,9.8056,0.0754,-0.0510,-0.1212,-1.7062,-2.0979,-6.0643
13136,-0.0402,-0.0284,9.8119,0.1771,0.0306,-0.1523,-1.6865,-2.1066,-6.0725
13144,-0.0401,-0.0330,9.8135,0.1463,0.0793,-0.1715,-1.6666,-2.1154,-6.0806
13152,-0.0519,-0.0249,9.8199,0.1968,-0.0367,-0.2165,-1.6422,-2.1241,-6.0887
13160,-0.0434,-0.0240,9.8230,0.1198,0.0069,-0.2728,-1.6195,-2.1323,-6.0996
13168,-0.0394,-0.0131,9.8176,0.2169,0.0273,-0.1480,-1.5970,-2.1376,-6.1043
13176,-0.0285,-0.0119,9.8177,0.2083,-0.0172,-0.1327,-1.5724,-2.1472,-6.1119
13184,-0.0359,-0.0186,9.8178,0.2562,0.0016,-0.0594,-1.5475,-2.1568,-6.1194
13192,-0.0508,-0.0228,9.8206,0.2246,-0.0097,-0.0986,-1.5258,-2.1664,-6.1254
13200,-0.0411,-0.0284,9.8259,0.2344,0.0541,-0.0455,-1.4991,-2.1717,-6.1367
13208,-0.0319,-0.0317,9.8193,0.2944,-0.0369,-0.0613,-1.4751,-2.1822,-6.1441
13216,-0.0139,-0.0310,9.8175,0.2425,-0.0519,-0.1244,-1.4509,-2.1927,-6.1515
13224,-0.0132,-0.0359,9.8089,0.2675,-0.0263,-0.1768,-1.4264,-2.2031,-6.1588
13232,-0.0061,-0.0312,9.8144,0.2354,-0.0604,-0.2349,-1.3989,-2.2069,-6.1666
13240,-0.0043,-0.0228,9.8085,0.2687,-0.0611,-0.2158,-1.3713,-2.2106,-6.1744
13248,-0.0099,-0.0271,9.8054,0.2046,-0.0563,-0.2801,-1.3439,-2.2172,-6.1826
13256,-0.0059,-0.0282,9.8185,0.2419,-0.0545,-0.2110,-1.3163,-2.2239,-6.1908
13264,-0.0041,-0.0160,9.8176,0.2029,-0.0927,-0.2490,-1.2886,-2.2304,-6.1990
13272,0.0076,-0.0109,9.8050,0.2643,-0.1213,-0.1625,-1.2583,-2.2346,-6.2085
13280,-0.0078,-0.0259,9.8031,0.3231,-0.1139,-0.1919,-1.2311,-2.2403,-6.2133
13288,-0.0027,-0.0221,9.8028,0.2939,-0.1656,-0.1427,-1.2048,-2.2478,-6.2209
13296,0.0020,-0.0260,9.8107,0.3006,-0.2443,-0.1649,-1.1782,-2.2553,-6.2285
13304,0.0022,-0.0185,9.7973,0.2911,-0.2849,-0.1035,-1.1520,-2.2656,-6.2341
13312,0.0050,-0.0205,9.7916,0.2767,-0.1504,-0.1675,-1.1214,-2.2716,-6.2440
13320,0.0026,-0.0254,9.7979,0.2228,-0.2058,-0.1646,-1.0943,-2.2800,-6.2524
13328,-0.0027,-0.0231,9.8039,0.1687,-0.2027,-0.1939,-1.0672,-2.2860,-6.2623
13336,0.0006,-0.0228,9.8095,0.1543,-0.2025,-0.2273,-1.0398,-2.2920,-6.2721
13344,-0.0087,-0.0270,9.8126,0.1805,-0.2102,-0.1658,-1.0143,-2.2980,-6.2794
13352,-0.0084,-0.0268,9.8119,0.2642,-0.1430,-0.1577,-0.9885,-2.3040,-6.2868
13360,-0.0105,-0.0393,9.8084,0.3043,-0.2894,-0.0940,-0.9598,-2.3080,-6.2936
13368,-0.0187,-0.0320,9.8135,0.2732,-0.1360,-0.1397,-0.9309,-2.3121,-6.3005
13376,-0.0257,-0.0304,9.8090,0.2542,-0.0587,-0.1407,-0.9019,-2.3161,-6.3073
13384,-0.0193,-0.0166,9.8081,0.2974,0.0713,-0.2110,-0.8722,-2.3235,-6.3193
13392,-0.0025,-0.0197,9.8050,0.2773,-0.0738,-0.1689,-0.8425,-2.3308,-6.3312
13400,-0.0161,-0.0242,9.8100,0.3248,-0.0365,-0.1340,-0.8154,-2.3315,-6.3403
13408,-0.0142,-0.0283,9.8117,0.2742,-0.0729,-0.1273,-0.7887,-2.3398,-6.3460
13416,-0.0157,-0.0289,9.8165,0.2685,-0.0703,-0.1929,-0.7619,-2.3481,-6.3517
13424,-0.0198,-0.0321,9.8231,0.3190,-0.0999,-0.1223,-0.7345,-2.3535,-6.3593
13432,-0.0107,-0.0373,9.8232,0.3780,0.0692,-0.0894,-0.7055,-2.3584,-6.3639
13440,-0.0130,-0.0457,9.8282,0.3918,0.0789,-0.0927,-0.6763,-2.3633,-6.3734
13448,-0.0114,-0.0296,9.8332,0.4209,0.1442,-0.1518,-0.6485,-2.3696,-6.3799
13456,-0.0100,-0.0345,9.8378,0.3875,0.1292,-0.1603,-0.6206,-2.3759,-6.3864
13464,-0.0160,-0.0245,9.8209,0.3741,0.1283,-0.1471,-0.5911,-2.3865,-6.3919
13472,-0.0123,-0.0281,9.8244,0.3561,0.0741,-0.1585,-0.5625,-2.3961,-6.3989
13480,-0.0195,-0.0296,9.8239,0.4294,-0.0711,-0.2333,-0.5333,-2.4038,-6.4086
13488,-0.0127,-0.0259,9.8206,0.4089,-0.0713,-0.1956,-0.5058,-2.4138,-6.4184
13496,-0.0043,-0.0244,9.8341,0.3760,-0.1195,-0.1676,-0.4783,-2.4238,-6.4257
13504,-0.0068,-0.0340,9.8213,0.4165,-0.0695,-0.2287,-0.4506,-2.4338,-6.4330
13512,-0.0063,-0.0431,9.8211,0.4286,-0.0005,-0.1699,-0.4224,-2.4442,-6.4384
13520,-0.0003,-0.0464,9.8322,0.4428,0.0016,-0.2389,-0.3941,-2.4546,-6.4437
13528,-0.0004,-0.0398,9.8232,0.4323,0.0382,-0.1209,-0.3656,-2.4649,-6.4490
13536,0.0036,-0.0406,9.8223,0.4197,0.0226,-0.0695,-0.3357,-2.4724,-6.4586
13544,0.0059,-0.0532,9.8288,0.4530,0.0503,-0.0763,-0.3056,-2.4799,-6.4682
13552,-0.0002,-0.0482,9.8302,0.4314,0.1355,-0.1867,-0.2726,-2.4845,-6.4691
13560,-0.0104,-0.0409,9.8295,0.4482,0.1050,-0.1590,-0.2429,-2.4863,-6.4758
13568,-0.0104,-0.0421,9.8226,0.4482,0.1238,-0.1992,-0.2131,-2.4880,-6.4824
13576,-0.0114,-0.0436,9.8145,0.4269,0.1524,-0.3017,-0.1832,-2.4950,-6.4938
13584,-0.0063,-0.0436,9.8144,0.4198,0.1718,-0.3170,-0.1536,-2.5039,-6.4975
13592,0.0024,-0.0464,9.8190,0.3891,0.1530,-0.2916,-0.1236,-2.5108,-6.5026
13600,-0.0039,-0.0502,9.8121,0.3997,0.2123,-0.3633,-0.0939,-2.5253,-6.5111
13608,-0.0054,-0.0519,9.8191,0.4178,0.2771,-0.4266,-0.0641,-2.5398,-6.5195
13616,-0.0137,-0.0575,9.8155,0.4565,0.2430,-0.4471,-0.0362,-2.5457,-6.5297
13624,-0.0157,-0.0657,9.8071,0.4535,0.2558,-0.4693,-0.0034,-2.5549,-6.5348
13632,-0.0079,-0.0541,9.8028,0.5066,0.3106,-0.5093,0.0294,-2.5641,-6.5398
13640,-0.0009,-0.0558,9.8175,0.4934,0.2431,-0.4408,0.0618,-2.5675,-6.5466
13648,-0.0123,-0.0497,9.8144,0.4861,0.1865,-0.3674,0.0943,-2.5710,-6.5535
13656,-0.0095,-0.0582,9.8199,0.4284,0.2097,-0.5025,0.1268,-2.5744,-6.5603
13664,-0.0137,-0.0655,9.8243,0.4613,0.2639,-0.4396,0.1551,-2.5793,-6.5695
13672,-0.0057,-0.0666,9.8247,0.3994,0.2464,-0.4542,0.1835,-2.5841,-6.5787
13680,-0.0116,-0.0599,9.8146,0.4389,0.2190,-0.3988,0.2148,-2.5914,-6.5844
13688,-0.0129,-0.0629,9.8205,0.3940,0.2515,-0.3245,0.2462,-2.5985,-6.5902
13696,-0.0168,-0.0483,9.8167,0.4577,0.2932,-0.2642,0.2795,-2.6038,-6.5964
13704,-0.0244,-0.0442,9.8178,0.4573,0.2851,-0.2758,0.3105,-2.6091,-6.6026
13712,-0.0136,-0.0442,9.8201,0.4302,0.2693,-0.3029,0.3411,-2.6148,-6.6107
13720,-0.0083,-0.0387,9.8282,0.4310,0.2036,-0.2061,0.3717,-2.6206,-6.6188
13728,-0.0177,-0.0382,9.8246,0.3891,0.1861,-0.0629,0.4023,-2.6277,-6.6254
13736,-0.0156,-0.0369,9.8190,0.3597,0.2467,-0.0860,0.4383,-2.6343,-6.6300
13744,-0.0124,-0.0276,9.8263,0.3636,0.2459,-0.0360,0.4714,-2.6414,-6.6366
13752,-0.0137,-0.0318,9.8201,0.4100,0.1545,-0.0709,0.5046,-2.6461,-6.6384
13760,-0.0138,-0.0361,9.8123,0.3877,0.0592,-0.1310,0.5378,-2.6508,-6.6402
13768,-0.0094,-0.0145,9.8174,0.4357,0.1200,-0.2124,0.5710,-2.6555,-6.6419
13776,-0.0064,-0.0214,9.8167,0.4176,0.1408,-0.2983,0.6024,-2.6597,-6.6466
13784,-0.0077,-0.0181,9.8128,0.4296,0.1153,-0.2630,0.6338,-2.6639,-6.6511
13792,0.0020,-0.0191,9.8306,0.3344,0.0936,-0.2160,0.6676,-2.6704,-6.6557
13800,-0.0047,-0.0183,9.8323,0.3501,0.2249,-0.2190,0.7014,-2.6770,-6.6603
13808,-0.0203,-0.0180,9.8383,0.3144,0.2358,-0.2379,0.7353,-2.6835,-6.6648
13816,-0.0162,-0.0227,9.8419,0.3656,0.1849,-0.1387,0.7673,-2.6881,-6.6641
13824,-0.0175,-0.0279,9.8392,0.2919,0.2428,-0.1664,0.8045,-2.6946,-6.6725
13832,-0.0146,-0.0289,9.8423,0.3094,0.1943,-0.1743,0.8385,-2.6997,-6.6793
13840,-0.0206,-0.0240,9.8332,0.4195,0.1745,-0.2352,0.8724,-2.7047,-6.6862
13848,-0.0183,-0.0227,9.8287,0.3194,0.1742,-0.1840,0.9040,-2.7097,-6.6920
13856,-0.0094,-0.0237,9.8300,0.2877,0.2353,-0.2311,0.9338,-2.7138,-6.6946
13864,-0.0118,-0.0270,9.8285,0.2681,0.1924,-0.1162,0.9683,-2.7231,-6.7023
13872,-0.0213,-0.0240,9.8294,0.2333,0.2527,-0.1076,0.9981,-2.7319,-6.7105
13880,-0.0153,-0.0186,9.8307,0.1920,0.2357,-0.0807,1.0279,-2.7406,-6.7187
13888,-0.0208,-0.0206,9.8305,0.2219,0.1874,0.0384,1.0605,-2.7446,-6.7230
13896,-0.0298,-0.0141,9.8330,0.2132,0.2959,-0.0265,1.0989,-2.7538,-6.7307
13904,-0.0321,-0.0096,9.8362,0.2101,0.3090,-0.0218,1.1335,-2.7582,-6.7368
13912,-0.0319,-0.0074,9.8263,0.2019,0.3029,-0.0787,1.1681,-2.7627,-6.7430
13920,-0.0263,-0.0122,9.8284,0.2367,0.3157,-0.0344,1.2027,-2.7671,-6.7492
13928,-0.0275,-0.0102,9.8247,0.2646,0.2666,-0.0720,1.2345,-2.7719,-6.7524
13936,-0.0218,-0.0184,9.8160,0.2833,0.2223,0.0040,1.2663,-2.7768,-6.7557
13944,-0.0167,-0.0103,9.8121,0.2772,0.2813,0.0793,1.2957,-2.7850,-6.7585
13952,-0.0120,-0.0062,9.8278,0.3033,0.2657,0.1620,1.3251,-2.7931,-6.7613
13960,-0.0124,-0.0093,9.8242,0.2750,0.2722,0.1425,1.3626,-2.7970,-6.7669
13968,-0.0200,-0.0058,9.8160,0.2346,0.2463,0.1371,1.3944,-2.8018,-6.7668
13976,-0.0218,-0.0107,9.8112,0.2466,0.2162,0.1213,1.4315,-2.8085,-6.7705
