Timestamp_ms,AccX_Filt,AccY_Filt,AccZ_Filt,GyrX_Filt,GyrY_Filt,GyrZ_Filt,MagX_Filt,MagY_Filt,MagZ_Filt
5233,-0.0753,-0.0242,9.6626,0.8730,1.0159,1.5019,-0.4050,-69.9300,-32.4000
5240,-0.0493,0.0020,9.7768,-0.0990,2.1144,0.2880,0.3596,-72.7516,-34.9814
5248,-0.0260,-0.0021,9.7766,0.0234,1.6068,-0.5054,0.4362,-73.9414,-35.2472
5256,-0.0093,-0.0066,9.7715,-0.1145,1.3215,-0.1981,0.5477,-74.1099,-35.2951
5264,0.0029,-0.0074,9.7694,0.0490,0.6196,-0.0378,0.6147,-74.0653,-35.3422
5272,0.0094,0.0069,9.7507,0.0757,0.3155,-0.0339,0.5854,-74.0611,-35.4387
5280,0.0134,0.0018,9.7632,0.3896,0.3295,0.3796,0.5638,-73.9545,-35.4586
5288,0.0185,0.0064,9.7721,0.3029,0.3952,0.1316,0.5101,-73.7288,-35.2454
5296,0.0071,-0.0023,9.7836,0.4473,0.2202,-0.0340,0.4678,-73.4735,-35.0413
5304,0.0087,-0.0063,9.7923,0.2739,0.2339,-0.1736,0.4335,-73.1981,-34.8438
5312,0.0232,-0.0091,9.7898,0.2673,0.1979,0.0254,0.3645,-72.8546,-34.7732
5320,0.0421,-0.0004,9.7893,0.2564,0.1841,0.0658,0.3439,-72.5225,-34.6122
5328,0.0423,0.0092,9.7937,0.2727,0.2290,-0.0954,0.3834,-72.3140,-34.5880
5336,0.0507,-0.0032,9.7732,0.1656,0.4423,-0.0163,0.4171,-72.0862,-34.5438
5344,0.0393,0.0077,9.7861,0.2607,0.4446,-0.0070,0.4759,-71.7540,-34.4243
5352,0.0289,0.0038,9.7851,0.1123,0.5123,-0.0733,0.3131,-71.3745,-34.2996
5360,0.0216,0.0024,9.7890,0.1062,0.4173,-0.0231,0.3978,-71.1582,-34.1269
5368,0.0224,0.0147,9.7921,0.1773,0.3444,-0.0427,0.4733,-70.9292,-33.9558
5376,0.0116,0.0112,9.7862,0.1597,0.3797,-0.0915,0.5409,-70.6896,-33.7863
5384,0.0039,0.0139,9.7781,0.1889,0.3403,-0.1545,0.6094,-70.4117,-33.6630
5392,-0.0026,0.0096,9.7873,0.1827,0.3372,-0.2009,0.6714,-70.1295,-33.5368
5400,-0.0088,0.0161,9.7946,0.1201,0.3735,-0.2078,0.6871,-69.7082,-33.4491
5408,-0.0088,0.0252,9.7970,0.0453,0.3063,-0.1587,0.7014,-69.2962,-33.3559
5416,-0.0158,0.0269,9.8121,0.1356,0.2410,-0.0626,0.7146,-68.8926,-33.2581
5424,-0.0202,0.0321,9.8119,0.0864,0.1972,-0.1563,0.7568,-68.5744,-33.1023
5432,-0.0154,0.0285,9.8080,0.1123,0.1011,-0.1943,0.7612,-68.2515,-32.9243
5440,-0.0148,0.0220,9.8160,0.0180,0.0181,-0.2586,0.7930,-67.9857,-32.7764
5448,-0.0161,0.0208,9.8245,0.0057,-0.0025,-0.2586,0.8227,-67.7174,-32.6288
5456,-0.0067,0.0210,9.8281,0.0563,-0.0094,-0.1902,0.8503,-67.4215,-32.4557
5464,-0.0129,0.0217,9.8351,0.0424,-0.0158,-0.1293,0.8361,-67.1157,-32.3448
5472,-0.0157,0.0196,9.8358,-0.0373,-0.0067,-0.0660,0.8374,-66.8206,-32.1981
5480,-0.0114,0.0122,9.8283,0.0137,0.0048,-0.0216,0.8387,-66.5260,-32.0520
5488,-0.0139,0.0119,9.8274,-0.0600,0.0216,-0.0479,0.8399,-66.2320,-31.9064
5496,-0.0208,0.0038,9.8262,-0.0060,-0.0243,0.0536,0.8543,-65.9342,-31.7350
5504,-0.0123,0.0094,9.8278,0.0246,0.0811,-0.0692,0.8679,-65.6376,-31.5656
5512,-0.0180,0.0025,9.8297,0.0158,0.1604,-0.0377,0.8891,-65.3378,-31.4108
5520,-0.0103,-0.0010,9.8278,0.0076,0.0975,0.0956,0.8727,-65.0030,-31.2938
5528,-0.0074,-0.0110,9.8329,0.0083,0.0837,0.2274,0.8572,-64.6714,-31.1761
5536,-0.0080,0.0023,9.8325,0.0573,0.0705,0.2559,0.8771,-64.3662,-31.0617
5544,0.0033,-0.0089,9.8285,0.0360,0.1456,0.0796,0.9037,-64.0630,-30.9390
5552,-0.0024,-0.0131,9.8253,0.0804,0.1691,0.0809,0.9069,-63.7836,-30.8272
5560,0.0029,-0.0156,9.8266,0.0526,0.0487,0.0569,0.8849,-63.4980,-30.7148
5568,-0.0006,-0.0201,9.8209,0.0986,-0.0071,0.1232,0.8640,-63.2137,-30.6018
5576,-0.0118,-0.0141,9.8212,0.1618,0.0369,0.0392,0.8406,-62.9272,-30.4438
5584,-0.0225,-0.0210,9.8050,0.1307,-0.0319,0.0119,0.8484,-62.6589,-30.3042
5592,-0.0212,-0.0263,9.8032,0.1506,0.0157,-0.0610,0.8558,-62.3914,-30.1655
5600,-0.0337,-0.0166,9.7910,0.1944,-0.1067,-0.0067,0.8630,-62.1247,-30.0275
5608,-0.0223,-0.0133,9.7974,0.1428,-0.0505,-0.0180,0.8699,-61.7928,-29.8903
5616,-0.0092,-0.0066,9.7981,0.0883,-0.0981,0.0368,0.8765,-61.4646,-29.7540
5624,-0.0146,-0.0096,9.7983,0.1209,-0.0371,0.0345,0.8497,-61.2092,-29.6033
5632,-0.0191,-0.0101,9.8053,0.1846,-0.1152,0.0241,0.8417,-60.9159,-29.4748
5640,-0.0190,-0.0152,9.7938,0.1339,-0.0971,0.0088,0.8340,-60.6249,-29.3469
5648,-0.0190,-0.0206,9.7871,0.1182,-0.1315,-0.0439,0.8238,-60.3559,-29.2366
5656,-0.0103,-0.0132,9.7938,0.1031,-0.0505,-0.0886,0.8140,-60.0743,-29.1066
5664,-0.0056,-0.0084,9.8031,0.0644,0.0106,-0.2018,0.8237,-59.8220,-28.9774
5672,-0.0041,-0.0131,9.8064,0.0734,-0.0203,-0.1367,0.8089,-59.5139,-28.8542
5680,-0.0114,-0.0137,9.8126,0.0010,-0.0633,-0.1880,0.7945,-59.2086,-28.7316
5688,-0.0130,-0.0084,9.8210,0.0398,0.0575,-0.1696,0.7703,-58.9218,-28.6355
5696,-0.0163,-0.0085,9.8108,0.0121,0.0462,-0.1385,0.7571,-58.6629,-28.5133
5704,-0.0206,-0.0132,9.8162,0.0288,0.1000,-0.1680,0.7444,-58.4053,-28.3916
5712,-0.0231,-0.0129,9.8219,0.0339,-0.0557,-0.1855,0.7520,-58.1639,-28.2630
5720,-0.0200,-0.0104,9.8212,0.0227,-0.0755,-0.1565,0.7593,-57.9233,-28.1351
5728,-0.0135,-0.0104,9.8278,0.0255,-0.0621,-0.2174,0.7665,-57.6837,-28.0079
5736,-0.0153,-0.0131,9.8284,0.0522,0.1171,-0.2595,0.7497,-57.4116,-27.8886
5744,-0.0079,-0.0119,9.8211,0.0590,0.0952,-0.2621,0.7451,-57.1579,-27.7791
5752,-0.0066,0.0001,9.8137,0.0762,-0.0008,-0.2432,0.7337,-56.9263,-27.6331
5760,-0.0132,-0.0013,9.8228,0.0444,0.0709,-0.2251,0.7227,-56.6954,-27.4884
5768,-0.0074,-0.0012,9.8170,0.0917,0.0965,-0.2079,0.7389,-56.4587,-27.3786
5776,-0.0016,-0.0034,9.8222,0.0673,0.0997,-0.3279,0.7546,-56.2119,-27.2470
5784,-0.0014,-0.0155,9.8224,0.1377,0.1669,-0.2500,0.7438,-55.9708,-27.1164
5792,-0.0080,0.0042,9.8166,0.1755,0.0197,-0.1513,0.7333,-55.7310,-26.9867
5800,-0.0031,0.0147,9.8201,0.1581,-0.1210,-0.1400,0.7252,-55.4966,-26.8495
5808,-0.0096,0.0200,9.8232,0.2164,-0.1832,-0.0917,0.7132,-55.2528,-26.7406
5816,-0.0164,0.0281,9.8155,0.2187,-0.1785,-0.0482,0.7015,-55.0104,-26.6321
5824,-0.0230,0.0304,9.8136,0.1887,-0.1233,-0.0254,0.7063,-54.7612,-26.5199
5832,-0.0244,0.0302,9.8086,0.1895,-0.1132,-0.0436,0.7111,-54.5137,-26.4082
5840,-0.0092,0.0163,9.8133,0.2116,-0.0769,0.0966,0.7158,-54.2677,-26.2970
5848,-0.0069,0.0093,9.8166,0.1713,-0.1330,0.0676,0.7085,-54.0447,-26.1805
5856,-0.0167,-0.0003,9.8100,0.1675,-0.2400,0.0640,0.7073,-53.8150,-26.0569
5864,-0.0128,0.0079,9.8122,0.1426,-0.1527,0.0285,0.7234,-53.5942,-25.9456
5872,-0.0120,0.0002,9.8097,0.1454,-0.1067,0.0773,0.7390,-53.3743,-25.8349
5880,-0.0117,-0.0021,9.8020,0.1053,-0.1134,0.1481,0.7337,-53.1349,-25.7192
5888,-0.0133,-0.0020,9.7945,0.0804,-0.1037,0.2130,0.7378,-52.8915,-25.6078
5896,-0.0156,-0.0023,9.7905,-0.0369,-0.0892,0.1817,0.7491,-52.6515,-25.4898
5904,-0.0118,0.0079,9.7987,-0.0316,-0.0620,0.2852,0.7602,-52.4130,-25.3725
5912,-0.0120,0.0189,9.8093,-0.1066,-0.1053,0.2881,0.7710,-52.1761,-25.2560
5920,-0.0222,0.0098,9.8134,-0.1489,-0.0934,0.2561,0.7657,-51.9354,-25.1473
5928,-0.0154,0.0061,9.8057,-0.1253,-0.0686,0.1615,0.7605,-51.6963,-25.0391
5936,-0.0189,-0.0023,9.8148,-0.1268,-0.1517,0.1912,0.7554,-51.4898,-24.9437
5944,-0.0166,0.0002,9.8166,-0.0722,-0.1938,0.2649,0.7504,-51.2843,-24.8485
5952,-0.0145,-0.0004,9.8191,-0.1347,-0.1806,0.1245,0.7456,-51.0797,-24.7537
5960,-0.0204,0.0033,9.8136,-0.0584,-0.2321,0.1104,0.7225,-50.8575,-24.6558
5968,-0.0166,-0.0021,9.8306,-0.0095,-0.2333,0.0863,0.7247,-50.6350,-24.5352
5976,-0.0254,-0.0070,9.8299,0.0800,-0.2985,0.0925,0.7154,-50.4056,-24.4121
5984,-0.0179,-0.0105,9.8198,0.0189,-0.2914,0.0505,0.7062,-50.1777,-24.2901
5992,-0.0148,-0.0127,9.8229,-0.0236,-0.2447,0.1170,0.7134,-49.9657,-24.1785
6000,-0.0165,-0.0065,9.8212,-0.1469,-0.1840,0.2179,0.7315,-49.7437,-24.0773
6008,-0.0131,-0.0119,9.8278,-0.0594,-0.1820,0.2504,0.7288,-49.5357,-23.9734
6016,-0.0204,-0.0090,9.8293,-0.1652,-0.2334,0.1534,0.7261,-49.3288,-23.8701
6024,-0.0184,-0.0141,9.8279,-0.1756,-0.2185,0.1781,0.7234,-49.1230,-23.7674
6032,-0.0166,-0.0087,9.8389,-0.1722,-0.2043,0.1670,0.7330,-48.9260,-23.6606
6040,-0.0191,-0.0120,9.8343,-0.1983,-0.3027,0.0817,0.7424,-48.7298,-23.5545
6048,-0.0291,-0.0009,9.8242,-0.1593,-0.3488,0.0374,0.7306,-48.5241,-23.4491
6056,-0.0226,0.0037,9.8201,-0.1513,-0.4116,0.0831,0.7190,-48.3196,-23.3443
6064,-0.0177,-0.0058,9.8113,-0.1143,-0.4156,0.0628,0.7075,-48.1161,-23.2401
6072,-0.0223,-0.0026,9.8098,-0.1509,-0.4968,0.0114,0.7021,-47.9138,-23.1439
6080,-0.0174,-0.0001,9.8039,-0.0926,-0.5024,0.0236,0.7157,-47.7067,-23.0395
6088,-0.0157,0.0030,9.7939,-0.1062,-0.4705,0.0459,0.7320,-47.4980,-22.9371
6096,-0.0141,0.0122,9.7918,-0.1192,-0.4506,0.0193,0.7479,-47.2906,-22.8354
6104,-0.0173,-0.0004,9.7885,-0.1023,-0.4609,0.1271,0.7507,-47.0971,-22.7400
6112,-0.0188,-0.0049,9.7909,-0.1207,-0.5561,0.0489,0.7479,-46.9032,-22.6436
6120,-0.0160,-0.0027,9.7818,-0.1198,-0.5245,0.1101,0.7395,-46.7034,-22.5575
6128,-0.0167,-0.0002,9.7831,-0.1855,-0.3955,0.1366,0.7313,-46.5047,-22.4718
6136,-0.0087,-0.0025,9.7915,-0.1230,-0.2936,0.1967,0.7232,-46.3072,-22.3864
6144,0.0017,0.0004,9.7973,-0.0046,-0.2627,0.2194,0.7166,-46.1121,-22.2905
6152,0.0080,0.0076,9.7926,0.0233,-0.2919,0.0358,0.7101,-45.9181,-22.1952
6160,-0.0009,0.0137,9.7883,0.0580,-0.2719,0.0603,0.7050,-45.7239,-22.1110
6168,-0.0012,0.0096,9.7816,0.0618,-0.1460,0.0063,0.7146,-45.5254,-22.0219
6176,-0.0106,0.0100,9.7752,0.0708,-0.0309,-0.0613,0.7240,-45.3281,-21.9333
6184,-0.0100,0.0044,9.7789,0.0634,0.0551,-0.1126,0.7215,-45.1477,-21.8346
6192,-0.0085,0.0053,9.7759,0.0617,0.0653,-0.1190,0.7113,-44.9447,-21.7522
6200,-0.0040,-0.0048,9.7800,0.0467,-0.0129,-0.1891,0.7127,-44.7521,-21.6610
6208,-0.0068,0.0011,9.7737,-0.0557,-0.0504,-0.1148,0.7078,-44.5683,-21.5665
6216,-0.0120,0.0059,9.7781,-0.1055,-0.0408,-0.1078,0.7029,-44.3854,-21.4726
6224,-0.0176,0.0049,9.7770,-0.0999,0.0376,-0.1170,0.6981,-44.2061,-21.3981
6232,-0.0214,0.0016,9.7787,-0.1691,0.0939,-0.0032,0.6921,-44.0326,-21.3038
6240,-0.0207,-0.0009,9.7757,-0.0807,0.1345,-0.0438,0.6862,-43.8600,-21.2101
6248,-0.0173,-0.0058,9.7767,-0.0601,0.1466,0.0535,0.6705,-43.6870,-21.1243
6256,-0.0083,0.0001,9.7743,-0.0911,0.0782,0.0052,0.6550,-43.5149,-21.0390
6264,0.0112,-0.0127,9.7781,-0.1101,0.1194,0.0470,0.6397,-43.3437,-20.9541
6272,0.0098,-0.0093,9.7953,-0.0989,0.2228,0.0416,0.6549,-43.1648,-20.8708
6280,0.0025,-0.0030,9.8003,-0.1096,0.1884,0.1244,0.6494,-42.9845,-20.7856
6288,0.0019,0.0005,9.8062,-0.1117,0.1288,0.0330,0.6535,-42.8099,-20.7008
6296,0.0031,-0.0051,9.8001,0.0035,0.0078,-0.0864,0.6576,-42.6363,-20.6153
6304,0.0006,-0.0083,9.8060,0.0044,0.0308,-0.1873,0.6568,-42.4742,-20.5372
6312,-0.0076,-0.0121,9.8105,0.0106,0.0181,-0.1851,0.6678,-42.2918,-20.4619
6320,-0.0137,-0.0128,9.8136,-0.0502,-0.0367,-0.1830,0.6646,-42.1162,-20.3764
6328,-0.0278,-0.0149,9.8150,-0.0603,-0.2251,-0.1970,0.6615,-41.9416,-20.2914
6336,-0.0328,-0.0112,9.8068,-0.0300,-0.0720,-0.3223,0.6641,-41.7680,-20.2114
6344,-0.0456,-0.0025,9.8125,-0.0569,-0.1122,-0.3142,0.6690,-41.6010,-20.1319
6352,-0.0385,-0.0027,9.8122,-0.1814,-0.0013,-0.2745,0.6738,-41.4349,-20.0527
6360,-0.0293,-0.0116,9.8120,-0.1618,-0.0472,-0.3218,0.6650,-41.2617,-19.9705
6368,-0.0306,-0.0060,9.8108,-0.1963,-0.0512,-0.2284,0.6563,-41.0895,-19.8888
6376,-0.0276,-0.0137,9.8034,-0.1627,0.0090,-0.3017,0.6477,-40.9183,-19.8075
6384,-0.0226,-0.0070,9.8068,-0.1386,-0.0560,-0.3078,0.6492,-40.7458,-19.7266
6392,-0.0186,-0.0159,9.8075,-0.1128,-0.0409,-0.2230,0.6462,-40.5731,-19.6494
6400,-0.0186,-0.0140,9.8104,-0.0695,-0.0158,-0.2246,0.6422,-40.4025,-19.5694
6408,-0.0204,-0.0173,9.8085,-0.0894,-0.0131,-0.1674,0.6382,-40.2329,-19.4897
6416,-0.0171,-0.0193,9.8022,-0.0498,0.0481,-0.1954,0.6450,-40.0728,-19.4051
6424,-0.0213,-0.0148,9.8011,-0.0599,0.0853,-0.2675,0.6517,-39.9104,-19.3285
6432,-0.0274,-0.0144,9.8051,-0.0963,0.1209,-0.2058,0.6531,-39.7519,-19.2501
6440,-0.0211,-0.0058,9.8083,-0.0324,0.1389,-0.2481,0.6490,-39.5965,-19.1742
6448,-0.0236,0.0016,9.8089,-0.0459,0.1828,-0.2726,0.6451,-39.4418,-19.0987
6456,-0.0131,0.0009,9.8053,-0.1095,0.1395,-0.3120,0.6474,-39.2868,-19.0069
6464,-0.0109,-0.0033,9.7948,-0.1437,0.1567,-0.3230,0.6497,-39.1326,-18.9156
6472,-0.0162,-0.0026,9.7934,-0.1497,0.2318,-0.3442,0.6437,-38.9750,-18.8415
6480,-0.0191,-0.0006,9.7900,-0.1102,0.2877,-0.3298,0.6377,-38.8183,-18.7678
6488,-0.0168,-0.0047,9.7955,-0.1096,0.2824,-0.2974,0.6318,-38.6623,-18.6944
6496,-0.0124,-0.0211,9.7936,-0.0478,0.2827,-0.2477,0.6280,-38.5123,-18.6245
6504,-0.0053,-0.0246,9.7974,-0.0127,0.2830,-0.2348,0.6273,-38.3590,-18.5559
6512,-0.0024,-0.0251,9.7995,-0.0778,0.3313,-0.3159,0.6256,-38.2185,-18.4866
6520,-0.0113,-0.0182,9.8082,-0.0440,0.3028,-0.2254,0.6238,-38.0787,-18.4177
6528,-0.0165,-0.0079,9.8038,-0.0357,0.3128,-0.2348,0.6271,-37.9216,-18.3491
6536,-0.0290,-0.0067,9.8030,0.0096,0.2025,-0.3052,0.6294,-37.7613,-18.2818
6544,-0.0303,-0.0043,9.8041,0.0048,0.1423,-0.3112,0.6286,-37.6068,-18.2049
6552,-0.0160,0.0134,9.8233,0.0457,0.1300,-0.3276,0.6328,-37.4610,-18.1314
6560,-0.0180,0.0016,9.8201,0.0207,0.0143,-0.3246,0.6369,-37.3159,-18.0583
6568,-0.0135,0.0064,9.8114,0.1275,-0.0056,-0.2230,0.6331,-37.1755,-17.9768
6576,-0.0209,0.0066,9.8176,0.1123,0.0713,-0.2966,0.6294,-37.0357,-17.8958
6584,-0.0206,0.0050,9.8173,0.1404,0.1048,-0.3003,0.6325,-36.8917,-17.8220
6592,-0.0159,-0.0041,9.8134,0.1353,0.1182,-0.3438,0.6355,-36.7485,-17.7486
6600,-0.0202,-0.0120,9.8221,0.1384,0.0910,-0.3827,0.6385,-36.6059,-17.6756
6608,-0.0201,-0.0073,9.8264,0.1041,0.1130,-0.4627,0.6367,-36.4565,-17.6172
6616,-0.0286,-0.0053,9.8330,0.1166,0.0834,-0.4777,0.6321,-36.3116,-17.5487
6624,-0.0267,-0.0053,9.8230,0.2138,0.0897,-0.5535,0.6303,-36.1759,-17.4683
6632,-0.0282,-0.0130,9.8272,0.2055,0.0291,-0.5406,0.6286,-36.0409,-17.3883
6640,-0.0346,-0.0073,9.8169,0.2162,0.0192,-0.5256,0.6315,-35.8944,-17.3172
6648,-0.0217,-0.0057,9.8126,0.3305,-0.0250,-0.6126,0.6288,-35.7542,-17.2521
6656,-0.0269,-0.0007,9.8196,0.2531,-0.0619,-0.6505,0.6326,-35.6128,-17.1900
6664,-0.0274,0.0016,9.8154,0.1844,-0.0199,-0.6467,0.6382,-35.4759,-17.1273
6672,-0.0298,-0.0050,9.8185,0.2360,0.0709,-0.5551,0.6438,-35.3396,-17.0649
6680,-0.0351,-0.0045,9.8236,0.2134,0.1071,-0.4594,0.6355,-35.2049,-16.9928
6688,-0.0335,-0.0133,9.8204,0.2371,0.0404,-0.3333,0.6274,-35.0708,-16.9210
6696,-0.0285,-0.0111,9.8103,0.1504,0.0087,-0.4367,0.6257,-34.9311,-16.8596
6704,-0.0180,-0.0070,9.8107,0.1102,0.0183,-0.3570,0.6240,-34.7920,-16.7984
6712,-0.0203,0.0055,9.8028,0.0771,0.0728,-0.2353,0.6222,-34.6537,-16.7375
6720,-0.0229,0.0067,9.7889,0.0614,0.0156,-0.1964,0.6286,-34.5223,-16.6689
6728,-0.0065,0.0042,9.7950,-0.0202,-0.0391,-0.3244,0.6180,-34.3844,-16.6033
6736,-0.0131,0.0065,9.7877,-0.0050,-0.0514,-0.4309,0.6207,-34.2481,-16.5363
6744,-0.0100,0.0081,9.7839,-0.0891,-0.0019,-0.5247,0.6217,-34.1125,-16.4784
6752,-0.0231,0.0150,9.7886,0.0012,-0.0025,-0.5504,0.6226,-33.9776,-16.4208
6760,-0.0364,0.0208,9.7888,-0.0352,-0.0670,-0.5003,0.6288,-33.8468,-16.3599
6768,-0.0319,0.0143,9.7935,-0.0379,-0.0168,-0.4258,0.6297,-33.7089,-16.2941
6776,-0.0311,0.0115,9.7891,-0.0539,-0.0621,-0.4265,0.6271,-33.5794,-16.2321
6784,-0.0213,0.0190,9.7933,-0.0638,-0.1054,-0.4351,0.6297,-33.4497,-16.1713
6792,-0.0110,0.0171,9.8022,-0.1107,-0.1334,-0.4061,0.6322,-33.3206,-16.1107
6800,0.0001,0.0104,9.8011,-0.1875,-0.1763,-0.5303,0.6348,-33.1922,-16.0504
6808,-0.0089,0.0203,9.8041,-0.1302,-0.1933,-0.4864,0.6287,-33.0652,-15.9879
6816,-0.0130,0.0147,9.7965,-0.1048,-0.1828,-0.5378,0.6228,-32.9389,-15.9257
6824,-0.0099,0.0178,9.7927,-0.0752,-0.2102,-0.5096,0.6168,-32.8131,-15.8638
6832,-0.0167,0.0138,9.8048,-0.0976,-0.2737,-0.5920,0.6143,-32.6880,-15.8038
6840,-0.0123,0.0147,9.8171,-0.0869,-0.3370,-0.5481,0.6161,-32.5727,-15.7484
6848,-0.0143,0.0183,9.8150,-0.0714,-0.2750,-0.3648,0.6144,-32.4504,-15.6857
6856,-0.0174,0.0197,9.8218,-0.0113,-0.3090,-0.1895,0.6111,-32.3303,-15.6274
6864,-0.0148,0.0209,9.8265,-0.0097,-0.2748,-0.1285,0.6078,-32.2107,-15.5694
6872,-0.0074,0.0253,9.8231,-0.0509,-0.2688,-0.1609,0.6046,-32.0851,-15.5076
6880,-0.0080,0.0242,9.8186,-0.0797,-0.2071,-0.1678,0.6038,-31.9618,-15.4494
6888,-0.0081,0.0182,9.8105,-0.0458,-0.1267,-0.0651,0.6030,-31.8407,-15.3931
6896,0.0018,0.0159,9.8163,-0.1095,-0.0925,-0.1669,0.5974,-31.7201,-15.3296
6904,-0.0024,0.0053,9.8312,-0.1170,-0.0171,-0.1523,0.5918,-31.6002,-15.2665
6912,0.0006,-0.0030,9.8314,-0.0388,0.0816,-0.1970,0.5862,-31.4808,-15.2038
6920,-0.0089,-0.0028,9.8271,0.0226,0.1440,-0.1383,0.5839,-31.3644,-15.1470
6928,0.0020,-0.0067,9.8258,-0.0067,-0.0043,-0.1383,0.5816,-31.2485,-15.0905
6936,0.0096,-0.0070,9.8261,-0.0054,-0.0315,-0.2102,0.5850,-31.1307,-15.0342
6944,0.0096,-0.0032,9.8277,0.0012,-0.0068,-0.1563,0.5883,-31.0135,-14.9782
6952,0.0101,0.0002,9.8310,-0.0485,0.0062,-0.2275,0.5940,-30.8969,-14.9265
6960,0.0070,0.0024,9.8322,0.0294,0.0825,-0.1329,0.5917,-30.7808,-14.8694
6968,0.0022,-0.0024,9.8346,0.0024,0.1636,-0.1970,0.5847,-30.6676,-14.8181
6976,0.0012,0.0005,9.8349,0.0354,0.2997,-0.0851,0.5832,-30.5541,-14.7702
6984,0.0066,0.0159,9.8334,0.0562,0.3633,-0.0767,0.5817,-30.4412,-14.7225
6992,0.0087,0.0216,9.8348,0.0681,0.4107,0.0087,0.5803,-30.3225,-14.6609
7000,-0.0021,0.0150,9.8265,-0.0112,0.3334,-0.0350,0.5788,-30.2044,-14.5996
7008,-0.0095,0.0162,9.8308,0.0597,0.3528,0.0459,0.5758,-30.0946,-14.5503
7016,-0.0049,0.0251,9.8338,0.1034,0.2834,0.0299,0.5729,-29.9853,-14.5012
7024,-0.0071,0.0240,9.8392,0.0306,0.2196,0.0519,0.5699,-29.8765,-14.4524
7032,-0.0087,0.0240,9.8378,0.0010,0.2253,0.0703,0.5678,-29.7652,-14.3952
7040,-0.0156,0.0153,9.8506,-0.0007,0.2175,-0.0054,0.5656,-29.6543,-14.3383
7048,-0.0168,0.0110,9.8453,0.0084,0.1273,-0.1071,0.5620,-29.5401,-14.2855
7056,-0.0165,0.0072,9.8579,0.0410,0.0517,-0.1644,0.5583,-29.4265,-14.2330
7064,-0.0167,0.0060,9.8533,-0.0397,0.1154,-0.1792,0.5501,-29.3225,-14.1799
7072,-0.0100,-0.0028,9.8519,-0.0689,0.0617,-0.1241,0.5565,-29.2167,-14.1248
7080,-0.0140,0.0029,9.8469,-0.1422,0.0156,-0.1966,0.5589,-29.1053,-14.0723
7088,-0.0058,0.0107,9.8457,-0.1296,0.0329,-0.1913,0.5538,-28.9960,-14.0132
7096,-0.0098,0.0138,9.8450,-0.1176,-0.0545,-0.2583,0.5488,-28.8871,-13.9543
7104,-0.0097,0.0215,9.8320,-0.0341,-0.0155,-0.2690,0.5475,-28.7893,-13.9003
7112,-0.0028,0.0117,9.8304,0.0164,-0.0608,-0.1859,0.5462,-28.6918,-13.8466
7120,0.0089,0.0114,9.8220,0.0887,-0.0002,-0.1971,0.5472,-28.5874,-13.8005
7128,0.0045,0.0076,9.8190,0.0779,0.0551,-0.1571,0.5482,-28.4834,-13.7547
7136,0.0123,0.0059,9.8199,0.0382,0.0254,-0.1162,0.5491,-28.3798,-13.7090
7144,0.0085,0.0044,9.8167,0.0242,-0.0004,-0.0585,0.5486,-28.2775,-13.6628
7152,-0.0014,0.0112,9.8083,0.0295,-0.0757,-0.1366,0.5480,-28.1756,-13.6168
7160,0.0052,0.0160,9.8193,0.0319,-0.1451,-0.0939,0.5497,-28.0741,-13.5636
7168,0.0006,0.0103,9.8138,-0.0244,-0.1421,-0.0291,0.5514,-27.9732,-13.5107
7176,-0.0085,0.0047,9.8162,-0.0383,-0.1499,0.0248,0.5537,-27.8697,-13.4624
7184,-0.0022,0.0124,9.8215,-0.0303,-0.1280,0.0204,0.5517,-27.7660,-13.4172
7192,-0.0010,0.0162,9.8240,-0.0039,-0.1845,0.0322,0.5534,-27.6700,-13.3635
7200,-0.0163,0.0142,9.8272,0.0720,-0.1717,0.0062,0.5579,-27.5621,-13.3123
7208,-0.0070,0.0128,9.8228,0.0325,-0.1969,0.0052,0.5623,-27.4547,-13.2613
7216,-0.0135,-0.0004,9.8151,-0.0185,-0.1490,-0.0223,0.5610,-27.3557,-13.2105
7224,-0.0122,0.0078,9.8196,-0.0380,-0.2205,-0.1047,0.5597,-27.2572,-13.1599
7232,-0.0114,0.0011,9.8205,0.0047,-0.1609,0.0113,0.5584,-27.1605,-13.1082
7240,-0.0249,0.0051,9.8181,0.0028,-0.2212,-0.0885,0.5570,-27.0643,-13.0566
7248,-0.0234,0.0095,9.8237,0.0144,-0.2575,-0.0427,0.5557,-26.9685,-13.0054
7256,-0.0020,0.0077,9.8173,0.0068,-0.2256,-0.0894,0.5623,-26.8738,-12.9586
7264,0.0056,0.0187,9.8116,0.1142,-0.1764,-0.0889,0.5581,-26.7788,-12.9113
7272,0.0033,0.0019,9.8082,0.0329,-0.1320,0.0264,0.5561,-26.6835,-12.8685
7280,0.0071,0.0016,9.8152,0.0592,-0.1270,0.0299,0.5590,-26.5886,-12.8224
7288,0.0206,-0.0027,9.8151,0.0203,-0.0928,0.0279,0.5619,-26.4941,-12.7764
7296,0.0201,-0.0002,9.8137,0.0791,-0.1134,0.0874,0.5648,-26.3966,-12.7236
7304,0.0314,-0.0007,9.8101,0.0954,-0.0131,0.0376,0.5642,-26.3085,-12.6816
7312,0.0239,-0.0025,9.8041,0.0709,-0.0559,0.0860,0.5664,-26.2195,-12.6356
7320,0.0149,-0.0078,9.7992,0.1675,-0.1021,0.0495,0.5650,-26.1238,-12.5876
7328,0.0071,-0.0116,9.7970,0.1639,-0.0690,0.0494,0.5637,-26.0286,-12.5399
7336,0.0188,-0.0092,9.8018,0.1097,-0.0533,0.0119,0.5623,-25.9338,-12.4924
7344,0.0089,-0.0129,9.7925,0.1113,-0.0250,-0.0319,0.5645,-25.8394,-12.4472
7352,0.0095,-0.0200,9.7864,0.0835,0.0021,-0.0419,0.5666,-25.7454,-12.4022
7360,0.0168,-0.0354,9.7964,0.1582,-0.0094,-0.0220,0.5687,-25.6518,-12.3574
7368,0.0057,-0.0326,9.8017,0.1603,-0.0150,-0.0670,0.5715,-25.5669,-12.3121
7376,0.0025,-0.0259,9.7966,0.1330,0.0757,-0.1234,0.5708,-25.4782,-12.2636
7384,0.0000,-0.0194,9.7951,0.1335,0.0183,-0.1747,0.5715,-25.3878,-12.2173
7392,0.0060,-0.0249,9.7951,0.0274,0.1262,-0.2904,0.5688,-25.2992,-12.1747
7400,0.0032,-0.0207,9.7946,-0.0234,0.2213,-0.3556,0.5661,-25.2109,-12.1322
7408,0.0080,-0.0156,9.8047,-0.0160,0.2323,-0.3754,0.5654,-25.1204,-12.0940
7416,0.0063,-0.0142,9.7965,-0.0090,0.2241,-0.3650,0.5716,-25.0302,-12.0614
7424,0.0031,-0.0174,9.7991,-0.0449,0.2323,-0.3310,0.5682,-24.9438,-12.0153
7432,0.0069,-0.0186,9.7983,0.0488,0.2641,-0.1225,0.5648,-24.8577,-11.9715
7440,0.0109,-0.0237,9.8003,0.1010,0.3105,-0.2058,0.5615,-24.7720,-11.9278
7448,0.0117,-0.0156,9.8176,0.1136,0.3709,-0.1681,0.5582,-24.6867,-11.8843
7456,0.0079,-0.0200,9.8227,0.1470,0.4020,-0.1748,0.5562,-24.5970,-11.8437
7464,0.0113,-0.0104,9.8097,0.1950,0.3838,-0.1518,0.5543,-24.5077,-11.8033
7472,0.0035,-0.0113,9.8051,0.1608,0.4196,-0.1991,0.5563,-24.4195,-11.7610
7480,0.0000,-0.0085,9.7982,0.1548,0.4059,-0.2151,0.5584,-24.3317,-11.7189
7488,0.0023,-0.0109,9.8025,0.1544,0.4328,-0.2596,0.5531,-24.2495,-11.6689
7496,0.0085,-0.0063,9.8023,0.1834,0.3946,-0.1396,0.5578,-24.1617,-11.6245
7504,0.0110,-0.0066,9.7943,0.1684,0.4033,-0.2168,0.5552,-24.0770,-11.5810
7512,0.0086,-0.0001,9.7944,0.1727,0.4330,-0.0987,0.5513,-23.9959,-11.5343
7520,0.0047,-0.0043,9.7886,0.1795,0.4293,-0.1003,0.5474,-23.9151,-11.4879
7528,0.0006,0.0025,9.7951,0.1194,0.4312,-0.1233,0.5435,-23.8379,-11.4436
7536,-0.0048,0.0049,9.8001,0.1792,0.3184,-0.1265,0.5410,-23.7525,-11.4073
7544,-0.0002,0.0076,9.8033,0.1991,0.3464,-0.2976,0.5300,-23.6754,-11.3673
7552,-0.0029,-0.0014,9.7998,0.2474,0.3199,-0.3626,0.5191,-23.5985,-11.3274
7560,-0.0007,-0.0104,9.8058,0.2003,0.3612,-0.4114,0.5082,-23.5220,-11.2877
7568,-0.0065,-0.0222,9.7979,0.2112,0.4274,-0.3781,0.5006,-23.4419,-11.2436
7576,-0.0059,-0.0056,9.7881,0.1417,0.3840,-0.3355,0.4931,-23.3621,-11.1997
7584,0.0020,-0.0028,9.7942,0.1632,0.3479,-0.3028,0.4941,-23.2806,-11.1631
7592,-0.0045,0.0028,9.7884,0.1064,0.3053,-0.3329,0.4950,-23.1996,-11.1266
7600,-0.0163,0.0075,9.7882,0.0841,0.2513,-0.2657,0.4972,-23.1150,-11.0871
7608,-0.0170,0.0095,9.7938,0.0308,0.2610,-0.2520,0.5001,-23.0352,-11.0528
7616,-0.0135,0.0081,9.7908,0.0438,0.3289,-0.1297,0.4991,-22.9584,-11.0104
7624,-0.0108,0.0045,9.7971,-0.0077,0.3938,-0.0527,0.4961,-22.8793,-10.9687
7632,0.0040,0.0009,9.8079,0.0497,0.3679,-0.0697,0.4932,-22.8005,-10.9272
7640,0.0059,0.0044,9.8090,-0.0395,0.4045,-0.1366,0.4865,-22.7163,-10.8898
7648,0.0040,0.0094,9.8168,-0.0927,0.4048,-0.0940,0.4849,-22.6363,-10.8531
7656,0.0019,0.0112,9.8197,-0.1596,0.3757,-0.0638,0.4782,-22.5541,-10.8146
7664,0.0077,0.0160,9.8156,-0.2209,0.3266,-0.0990,0.4715,-22.4722,-10.7763
7672,0.0025,0.0185,9.8146,-0.2662,0.2023,-0.0954,0.4649,-22.3907,-10.7382
7680,0.0032,0.0058,9.8195,-0.3042,0.1661,-0.1372,0.4666,-22.3076,-10.7008
7688,0.0061,0.0024,9.8245,-0.2712,0.0648,-0.1318,0.4682,-22.2249,-10.6636
7696,0.0038,0.0067,9.8172,-0.2637,0.0800,-0.1934,0.4655,-22.1538,-10.6202
7704,0.0044,0.0087,9.8196,-0.2458,0.0438,-0.1749,0.4627,-22.0831,-10.5770
7712,0.0095,0.0047,9.8119,-0.2580,0.1239,-0.2319,0.4637,-22.0019,-10.5409
7720,0.0173,-0.0022,9.8112,-0.2457,0.2004,-0.2304,0.4710,-21.9223,-10.5018
7728,0.0225,0.0030,9.8079,-0.2285,0.2283,-0.2077,0.4689,-21.8469,-10.4616
7736,0.0168,0.0026,9.8035,-0.2495,0.2496,-0.1459,0.4705,-21.7705,-10.4222
7744,0.0143,0.0046,9.7990,-0.1976,0.2274,-0.1882,0.4721,-21.6943,-10.3830
7752,0.0139,0.0000,9.7900,-0.1719,0.1901,-0.1913,0.4687,-21.6198,-10.3477
7760,0.0145,0.0059,9.7837,-0.1340,0.2771,-0.2529,0.4653,-21.5456,-10.3124
7768,0.0150,0.0076,9.7871,-0.0978,0.2510,-0.2051,0.4663,-21.4729,-10.2774
7776,0.0068,0.0082,9.7874,-0.1778,0.1886,-0.0902,0.4673,-21.4004,-10.2424
7784,0.0039,0.0010,9.7881,-0.1557,0.1850,-0.0309,0.4683,-21.3283,-10.2076
7792,0.0086,-0.0051,9.7943,-0.1692,0.2216,0.0205,0.4668,-21.2528,-10.1736
7800,0.0060,-0.0088,9.7889,-0.0887,0.2832,0.0403,0.4653,-21.1776,-10.1397
7808,0.0128,-0.0007,9.7977,-0.0785,0.2275,0.0139,0.4620,-21.1064,-10.1022
7816,0.0194,-0.0052,9.7956,-0.0980,0.1902,0.0099,0.4599,-21.0342,-10.0679
7824,0.0226,-0.0043,9.7901,-0.0527,0.1972,0.0568,0.4578,-20.9623,-10.0338
7832,0.0305,-0.0026,9.7815,-0.0973,0.2039,-0.0103,0.4606,-20.8895,-10.0004
7840,0.0236,-0.0020,9.7846,-0.0841,0.1409,-0.0052,0.4622,-20.8249,-9.9617
7848,0.0136,-0.0032,9.7952,-0.1833,0.2034,0.0131,0.4644,-20.7490,-9.9267
7856,0.0197,-0.0007,9.7893,-0.2703,0.1645,0.0065,0.4666,-20.6734,-9.8919
7864,0.0347,-0.0102,9.7885,-0.2681,0.2846,-0.1198,0.4664,-20.6005,-9.8579
7872,0.0265,-0.0084,9.7873,-0.2473,0.3088,-0.0805,0.4661,-20.5279,-9.8240
7880,0.0240,-0.0108,9.7885,-0.2488,0.3640,-0.0243,0.4640,-20.4544,-9.7896
7888,0.0204,-0.0162,9.7823,-0.2822,0.2941,0.1068,0.4619,-20.3812,-9.7553
7896,0.0217,-0.0188,9.7899,-0.3355,0.3978,0.0481,0.4599,-20.3083,-9.7212
7904,0.0129,-0.0166,9.7955,-0.3172,0.3558,0.0347,0.4621,-20.2393,-9.6932
7912,-0.0047,-0.0297,9.7954,-0.2756,0.4035,-0.0021,0.4618,-20.1772,-9.6569
7920,-0.0015,-0.0233,9.7972,-0.2998,0.2919,-0.0720,0.4616,-20.1142,-9.6237
7928,0.0078,-0.0197,9.8030,-0.3550,0.3237,-0.0775,0.4583,-20.0489,-9.5901
7936,0.0126,-0.0124,9.8086,-0.3651,0.3329,-0.1148,0.4551,-19.9839,-9.5566
7944,0.0169,-0.0081,9.8164,-0.4174,0.2457,-0.2251,0.4566,-19.9150,-9.5227
7952,0.0177,-0.0060,9.8153,-0.3848,0.2369,-0.2692,0.4492,-19.8410,-9.4865
7960,0.0156,-0.0128,9.8326,-0.3910,0.2152,-0.1488,0.4502,-19.7738,-9.4534
7968,0.0096,-0.0157,9.8349,-0.3968,0.2291,-0.1883,0.4476,-19.7087,-9.4168
7976,0.0192,-0.0097,9.8293,-0.3998,0.1837,-0.1620,0.4451,-19.6439,-9.3804
7984,0.0234,-0.0070,9.8270,-0.3306,0.1430,-0.1556,0.4425,-19.5793,-9.3442
7992,0.0198,-0.0110,9.8235,-0.3364,0.1681,-0.1254,0.4447,-19.5161,-9.3146
8000,0.0184,-0.0063,9.8154,-0.3260,0.2054,-0.1873,0.4469,-19.4532,-9.2851
8008,0.0095,-0.0008,9.8148,-0.2947,0.2010,-0.1877,0.4485,-19.3893,-9.2505
8016,0.0154,0.0002,9.8134,-0.2328,0.1756,-0.2548,0.4500,-19.3257,-9.2159
8024,0.0268,0.0119,9.7976,-0.2083,0.2045,-0.2684,0.4451,-19.2611,-9.1845
8032,0.0275,0.0126,9.8005,-0.2568,0.1656,-0.2626,0.4467,-19.1921,-9.1602
8040,0.0245,0.0068,9.8114,-0.3032,0.1843,-0.1158,0.4465,-19.1251,-9.1301
8048,0.0249,0.0043,9.8153,-0.3102,0.2716,-0.0314,0.4428,-19.0625,-9.0978
8056,0.0253,0.0097,9.8139,-0.2529,0.2644,-0.0653,0.4391,-19.0001,-9.0656
8064,0.0212,0.0065,9.8135,-0.2702,0.2654,-0.1564,0.4383,-18.9315,-9.0295
8072,0.0174,0.0085,9.8067,-0.2013,0.3758,-0.1236,0.4358,-18.8743,-8.9975
8080,0.0176,0.0131,9.8079,-0.2475,0.4680,-0.1322,0.4333,-18.8098,-8.9657
8088,0.0073,0.0032,9.8167,-0.2276,0.5002,-0.0710,0.4308,-18.7454,-8.9341
8096,0.0076,0.0006,9.8042,-0.1846,0.5097,-0.0473,0.4283,-18.6814,-8.9025
8104,0.0092,0.0018,9.7974,-0.2102,0.5667,-0.1205,0.4247,-18.6175,-8.8751
8112,0.0038,-0.0039,9.7954,-0.2000,0.4959,-0.1666,0.4211,-18.5540,-8.8479
8120,-0.0001,-0.0072,9.8004,-0.2195,0.4308,-0.2586,0.4204,-18.4901,-8.8155
8128,0.0054,-0.0120,9.8131,-0.2116,0.3580,-0.2559,0.4198,-18.4264,-8.7832
8136,0.0049,-0.0059,9.8032,-0.2679,0.2990,-0.1921,0.4254,-18.3624,-8.7494
8144,-0.0082,-0.0031,9.8061,-0.2205,0.3252,-0.1843,0.4294,-18.3010,-8.7202
8152,-0.0051,-0.0102,9.8046,-0.2098,0.4170,-0.2622,0.4292,-18.2375,-8.6866
8160,-0.0087,-0.0134,9.7992,-0.1570,0.4647,-0.2514,0.4256,-18.1742,-8.6572
8168,-0.0064,-0.0181,9.7988,-0.2371,0.5264,-0.2651,0.4221,-18.1112,-8.6278
8176,-0.0067,-0.0319,9.8003,-0.1137,0.5134,-0.2595,0.4271,-18.0461,-8.5980
8184,0.0050,-0.0266,9.7911,-0.0943,0.4102,-0.3421,0.4253,-17.9796,-8.5666
8192,0.0073,-0.0255,9.7883,-0.0545,0.4423,-0.2131,0.4280,-17.9184,-8.5404
8200,0.0130,-0.0236,9.8036,-0.0724,0.3956,-0.1565,0.4307,-17.8576,-8.5144
8208,0.0155,-0.0282,9.8037,0.0518,0.4389,-0.1450,0.4335,-17.7969,-8.4884
8216,0.0218,-0.0311,9.8043,0.0559,0.3764,-0.2299,0.4304,-17.7342,-8.4603
8224,0.0225,-0.0323,9.8066,0.0171,0.2019,-0.2205,0.4274,-17.6717,-8.4323
8232,0.0150,-0.0242,9.8128,0.0388,0.2244,-0.1982,0.4262,-17.6135,-8.4066
8240,0.0236,-0.0261,9.8061,0.0941,0.2619,-0.2409,0.4249,-17.5555,-8.3810
8248,0.0264,-0.0273,9.7955,0.2004,0.2258,-0.2256,0.4213,-17.4988,-8.3539
8256,0.0176,-0.0320,9.8060,0.2300,0.2392,-0.2884,0.4167,-17.4367,-8.3228
8264,0.0160,-0.0222,9.8150,0.2849,0.1561,-0.3031,0.4155,-17.3777,-8.2907
8272,0.0145,-0.0220,9.8186,0.2255,0.1112,-0.3359,0.4176,-17.3166,-8.2690
8280,0.0132,-0.0240,9.8136,0.2300,0.0683,-0.3112,0.4198,-17.2557,-8.2473
8288,0.0179,-0.0309,9.8223,0.2077,0.0007,-0.2609,0.4219,-17.1968,-8.2218
8296,0.0190,-0.0317,9.8316,0.2129,-0.0827,-0.3701,0.4247,-17.1375,-8.1873
8304,0.0140,-0.0337,9.8268,0.1487,-0.0718,-0.4532,0.4211,-17.0796,-8.1625
8312,0.0082,-0.0356,9.8192,0.1512,-0.0800,-0.3461,0.4176,-17.0219,-8.1378
8320,0.0152,-0.0423,9.8151,0.0923,-0.0212,-0.4276,0.4142,-16.9645,-8.1132
8328,0.0138,-0.0410,9.8082,0.0760,-0.0129,-0.4496,0.4112,-16.9123,-8.0893
8336,0.0098,-0.0331,9.8193,0.0843,-0.0264,-0.4919,0.4084,-16.8603,-8.0654
8344,0.0099,-0.0181,9.8174,0.1883,-0.0499,-0.4737,0.4021,-16.8051,-8.0383
8352,0.0085,-0.0169,9.8208,0.1705,-0.0217,-0.5523,0.4032,-16.7479,-8.0079
8360,0.0046,-0.0263,9.8279,0.1001,0.0025,-0.5021,0.4043,-16.6909,-7.9776
8368,-0.0026,-0.0197,9.8376,0.0674,0.0364,-0.4622,0.3986,-16.6358,-7.9502
8376,-0.0119,-0.0193,9.8308,0.1455,-0.0032,-0.4106,0.3997,-16.5764,-7.9229
8384,-0.0098,-0.0248,9.8233,0.1561,-0.1237,-0.4253,0.3980,-16.5245,-7.8929
8392,-0.0102,-0.0120,9.8198,0.0917,-0.0870,-0.3807,0.3963,-16.4728,-7.8631
8400,-0.0128,-0.0241,9.8247,0.1420,-0.1106,-0.3913,0.3979,-16.4191,-7.8422
8408,-0.0133,-0.0078,9.8251,0.1849,-0.0931,-0.4256,0.3979,-16.3639,-7.8148
8416,-0.0134,0.0011,9.8195,0.2098,-0.1644,-0.3996,0.4045,-16.3128,-7.7908
8424,-0.0071,-0.0027,9.8168,0.1883,-0.0485,-0.3748,0.4111,-16.2619,-7.7669
8432,0.0014,0.0003,9.8115,0.1758,-0.0897,-0.3004,0.4177,-16.2111,-7.7431
8440,0.0013,0.0116,9.8091,0.1905,-0.1078,-0.2799,0.4192,-16.1595,-7.7199
8448,0.0040,0.0063,9.8068,0.1965,-0.2158,-0.2310,0.4208,-16.1080,-7.6968
8456,-0.0023,-0.0034,9.7957,0.2476,-0.1670,-0.3069,0.4168,-16.0534,-7.6704
8464,0.0039,0.0005,9.7934,0.2938,-0.2324,-0.2674,0.4156,-15.9957,-7.6459
8472,-0.0014,0.0104,9.8018,0.2900,-0.3483,-0.2564,0.4144,-15.9382,-7.6214
8480,0.0093,0.0176,9.7902,0.3344,-0.4297,-0.2565,0.4143,-15.8876,-7.5931
