Timestamp_ms,AccX_Filt,AccY_Filt,AccZ_Filt,GyrX_Filt,GyrY_Filt,GyrZ_Filt,MagX_Filt,MagY_Filt,MagZ_Filt
5233,0.0432,0.0970,9.9010,-0.9310,-1.8665,-0.4656,19.4400,17.0100,-57.6450
5240,0.0362,0.1215,9.9087,0.0104,-1.1405,0.5074,19.9085,17.3755,-60.6566
5248,0.0468,0.1216,9.9048,0.3867,-0.5920,0.8332,20.0561,17.6403,-61.2305
5256,0.0225,0.1106,9.8942,0.2075,-0.5315,0.5981,20.0814,17.7320,-61.3715
5264,0.0330,0.1180,9.8887,0.2599,-0.2978,0.7524,20.0569,17.7529,-61.3354
5272,0.0219,0.1300,9.8729,0.0365,-0.1208,0.4938,19.7380,17.7134,-61.2349
5280,0.0100,0.1349,9.8691,0.0192,0.0865,0.0225,19.4818,17.6606,-61.0769
5288,0.0163,0.1449,9.8404,0.0770,0.1087,0.1719,19.3395,17.4701,-61.0868
5296,0.0284,0.1566,9.8300,-0.1466,0.1968,0.1119,19.2077,17.3031,-61.0284
5304,0.0303,0.1468,9.8252,-0.2170,0.0939,-0.2712,19.2617,17.0787,-60.7740
5312,0.0170,0.1553,9.8252,-0.3638,0.0329,-0.2548,19.1271,17.0561,-60.5124
5320,0.0233,0.1553,9.8291,-0.5913,-0.1007,-0.4445,18.9995,16.9992,-60.2458
5328,0.0272,0.1500,9.8244,-0.9395,-0.1219,-0.4722,18.9347,16.9961,-60.0904
5336,0.0108,0.1402,9.8084,-1.0119,-0.1983,-0.2730,18.8664,16.9822,-59.9165
5344,0.0158,0.1398,9.8279,-0.9280,-0.3524,-0.3521,18.6861,16.9400,-59.4999
5352,0.0281,0.1360,9.8227,-0.9154,-0.3654,-0.2465,18.5732,16.8841,-59.2684
5360,0.0268,0.1360,9.8176,-0.9336,-0.3226,-0.4126,18.4546,16.9045,-58.9354
5368,0.0280,0.1221,9.8107,-0.9216,-0.4937,-0.4244,18.3397,16.9141,-58.6091
5376,0.0214,0.1201,9.8040,-1.0741,-0.4224,-0.4349,18.2278,16.9145,-58.2888
5384,0.0241,0.1080,9.8071,-1.1558,-0.3729,-0.2602,18.0888,16.8625,-57.9814
5392,0.0143,0.1042,9.8154,-1.2047,-0.3862,-0.1485,17.9551,16.8082,-57.6781
5400,-0.0002,0.1069,9.8145,-1.2743,-0.3558,-0.1422,17.8329,16.7929,-57.4058
5408,-0.0015,0.1107,9.8170,-1.2862,-0.3625,-0.1538,17.7141,16.7724,-57.1347
5416,-0.0055,0.1099,9.8224,-1.3786,-0.2975,-0.1577,17.5736,16.6416,-56.8399
5424,0.0053,0.1129,9.8181,-1.3047,-0.2705,-0.1680,17.4918,16.5692,-56.5723
5432,0.0200,0.0921,9.8289,-1.3045,-0.2749,-0.1286,17.4160,16.4451,-56.2254
5440,0.0200,0.0913,9.8249,-1.2211,-0.2020,-0.1752,17.3235,16.3747,-56.0023
5448,0.0333,0.0975,9.8254,-1.1906,-0.1593,-0.1463,17.2320,16.3044,-55.7777
5456,0.0333,0.1085,9.8181,-1.1931,-0.1846,-0.3087,17.0951,16.2288,-55.4587
5464,0.0357,0.1107,9.8059,-1.2231,-0.2114,-0.1787,16.9624,16.1537,-55.1449
5472,0.0442,0.1100,9.8078,-1.2482,-0.2517,-0.2446,16.9011,16.0597,-54.8650
5480,0.0318,0.1120,9.8236,-1.3647,-0.2836,-0.2945,16.8391,15.9673,-54.5878
5488,0.0311,0.1011,9.8238,-1.4359,-0.3403,-0.1576,16.7764,15.8763,-54.3132
5496,0.0378,0.0885,9.8089,-1.4941,-0.3173,-0.2901,16.6955,15.7957,-54.0588
5504,0.0224,0.0912,9.8123,-1.5636,-0.2198,-0.2053,16.6152,15.7244,-53.7844
5512,0.0185,0.0896,9.8135,-1.6987,-0.2347,-0.1512,16.5395,15.6576,-53.5251
5520,0.0140,0.0876,9.8032,-1.7059,-0.1828,-0.1489,16.4602,15.5544,-53.2758
5528,0.0068,0.0790,9.8012,-1.7869,-0.1021,-0.0696,16.3813,15.4533,-53.0279
5536,0.0098,0.0786,9.8136,-1.8012,-0.1592,0.0310,16.3068,15.3618,-52.7852
5544,0.0181,0.0672,9.8101,-1.7809,-0.1624,-0.0542,16.2365,15.2641,-52.5475
5552,0.0164,0.0720,9.8006,-1.7841,-0.0756,-0.0929,16.1772,15.1682,-52.3035
5560,0.0021,0.0840,9.8085,-1.7899,0.0041,-0.0877,16.1177,15.0739,-52.0609
5568,-0.0080,0.0662,9.8174,-1.7481,0.0770,-0.0605,16.0578,14.9917,-51.8092
5576,-0.0091,0.0642,9.8122,-1.7500,0.0769,-0.1623,15.9977,14.9104,-51.5594
5584,-0.0018,0.0538,9.8180,-1.6162,0.0381,-0.0988,15.9608,14.8200,-51.3282
5592,-0.0052,0.0507,9.8269,-1.6240,0.1004,-0.1789,15.9227,14.7310,-51.0980
5600,-0.0092,0.0452,9.8249,-1.5848,0.0663,-0.0599,15.8835,14.6432,-50.8690
5608,-0.0087,0.0306,9.8186,-1.5611,0.0421,-0.0563,15.8183,14.5787,-50.6065
5616,-0.0083,0.0270,9.8183,-1.5631,0.1803,-0.0775,15.7408,14.4928,-50.3865
5624,-0.0107,0.0196,9.8272,-1.4777,0.1674,-0.0541,15.6338,14.4263,-50.1251
5632,-0.0210,0.0102,9.8147,-1.4426,0.1906,-0.0916,15.5552,14.3542,-49.9137
5640,-0.0158,0.0031,9.8116,-1.3601,0.1936,-0.0676,15.4773,14.2827,-49.7029
5648,-0.0156,0.0066,9.8061,-1.2571,0.2209,-0.1587,15.4001,14.2061,-49.4699
5656,-0.0090,0.0099,9.8025,-1.2970,0.2144,-0.1074,15.3235,14.1303,-49.2245
5664,-0.0086,0.0119,9.7973,-1.3053,0.2705,-0.1045,15.2476,14.0553,-48.9811
5672,-0.0036,0.0196,9.7863,-1.3457,0.3159,-0.1044,15.1777,13.9864,-48.7478
5680,0.0145,0.0280,9.7796,-1.4032,0.3512,-0.0584,15.1082,13.9180,-48.5162
5688,0.0023,0.0246,9.7880,-1.3933,0.3660,-0.0468,15.0392,13.8502,-48.2862
5696,0.0067,0.0147,9.7911,-1.3111,0.4043,-0.1463,14.9475,13.7675,-48.0784
5704,-0.0021,0.0158,9.7921,-1.1976,0.3737,-0.0770,14.8569,13.6858,-47.8714
5712,0.0109,0.0073,9.7980,-1.1268,0.3739,-0.0432,14.7774,13.6325,-47.6629
5720,0.0021,0.0223,9.8015,-1.0378,0.2318,-0.1613,14.6987,13.5792,-47.4554
5728,-0.0030,0.0053,9.8074,-0.9312,0.2464,-0.2527,14.6497,13.4971,-47.2152
5736,0.0023,-0.0086,9.8191,-0.9207,0.3382,-0.2354,14.5626,13.4302,-47.0079
5744,0.0063,-0.0103,9.8206,-0.7818,0.3186,-0.3154,14.4858,13.3778,-46.8111
5752,0.0012,-0.0160,9.8202,-0.7537,0.2676,-0.1746,14.4351,13.3256,-46.6150
5760,0.0029,-0.0133,9.8152,-0.7644,0.2029,-0.1660,14.3843,13.2667,-46.3879
5768,0.0100,-0.0050,9.8194,-0.7344,0.1973,-0.2463,14.3156,13.1812,-46.1716
5776,0.0205,0.0016,9.8299,-0.6763,0.1304,-0.2024,14.2473,13.0969,-45.9567
5784,0.0163,-0.0056,9.8350,-0.6609,0.0851,-0.2355,14.1818,13.0266,-45.7671
5792,0.0166,0.0047,9.8391,-0.6355,0.1382,-0.1735,14.1166,12.9570,-45.5783
5800,0.0133,0.0117,9.8396,-0.6460,0.2505,-0.1810,14.0519,12.8881,-45.3903
5808,0.0098,-0.0006,9.8419,-0.5517,0.2508,-0.2391,13.9772,12.8323,-45.1968
5816,0.0107,0.0011,9.8326,-0.5766,0.1923,-0.1743,13.9031,12.7707,-45.0042
5824,0.0188,-0.0102,9.8314,-0.5763,0.2327,-0.1550,13.8338,12.7033,-44.8085
5832,0.0203,-0.0045,9.8295,-0.6188,0.2284,-0.0565,13.7650,12.6366,-44.6138
5840,0.0120,-0.0143,9.8127,-0.5846,0.0293,0.0270,13.7126,12.5863,-44.4163
5848,0.0150,-0.0036,9.8257,-0.5973,0.0875,-0.1309,13.6525,12.5186,-44.2395
5856,0.0150,-0.0058,9.8179,-0.6815,0.0522,-0.0949,13.6063,12.4573,-44.0459
5864,0.0104,-0.0032,9.8145,-0.7194,0.0345,-0.1166,13.5391,12.4079,-43.8553
5872,0.0068,-0.0050,9.8179,-0.7075,0.0710,-0.1427,13.4723,12.3587,-43.6657
5880,0.0012,-0.0093,9.8190,-0.6027,0.1353,-0.2023,13.4042,12.3022,-43.4753
5888,-0.0112,-0.0087,9.8105,-0.6226,0.1941,-0.1259,13.3367,12.2460,-43.2860
5896,-0.0087,-0.0012,9.8087,-0.6790,0.0981,-0.0954,13.2533,12.1793,-43.0996
5904,0.0008,-0.0073,9.8085,-0.7063,0.1078,-0.0824,13.1708,12.1131,-42.9142
5912,-0.0033,-0.0014,9.8160,-0.6736,0.2185,-0.1313,13.0893,12.0476,-42.7298
5920,-0.0011,-0.0019,9.8219,-0.5890,0.2256,-0.1193,13.0262,11.9967,-42.5552
5928,-0.0069,-0.0079,9.8213,-0.6709,0.1843,-0.0839,12.9724,11.9356,-42.3692
5936,-0.0025,-0.0206,9.8222,-0.7092,0.2142,-0.1514,12.9102,11.8750,-42.1877
5944,-0.0045,-0.0244,9.8175,-0.6363,0.2082,-0.1519,12.8485,11.8149,-42.0073
5952,0.0087,-0.0164,9.8259,-0.6441,0.2184,-0.2084,12.8007,11.7654,-41.8278
5960,0.0002,-0.0182,9.8072,-0.6835,0.2121,-0.1531,12.7464,11.7211,-41.6476
5968,0.0039,-0.0222,9.7916,-0.5852,0.2168,-0.2762,12.6908,11.6373,-41.4701
5976,0.0035,-0.0103,9.7989,-0.5525,0.1759,-0.2419,12.6355,11.5546,-41.2935
5984,0.0114,-0.0110,9.7946,-0.5693,0.1502,-0.2385,12.5805,11.4728,-41.1179
5992,0.0104,-0.0074,9.7925,-0.5613,0.1816,-0.2112,12.5290,11.4339,-40.9433
6000,0.0122,0.0044,9.7893,-0.5403,0.2276,-0.1744,12.4778,11.3951,-40.7696
6008,0.0129,-0.0008,9.7895,-0.4109,0.1810,-0.0965,12.4395,11.3516,-40.6000
6016,0.0204,0.0050,9.7884,-0.3912,0.2004,-0.1235,12.3840,11.2912,-40.4298
6024,0.0185,0.0061,9.7841,-0.3617,0.1256,-0.0558,12.3289,11.2314,-40.2604
6032,0.0295,0.0002,9.7785,-0.3281,0.1234,-0.0819,12.2818,11.1905,-40.0766
6040,0.0190,-0.0060,9.7811,-0.2853,0.0386,0.0053,12.2409,11.1391,-39.9062
6048,0.0168,-0.0088,9.7767,-0.2017,0.0322,-0.0368,12.1821,11.0987,-39.7472
6056,0.0225,-0.0009,9.7813,-0.3619,0.0501,-0.1250,12.1237,11.0584,-39.5889
6064,0.0246,0.0039,9.7823,-0.2563,-0.0262,-0.1240,12.0657,11.0035,-39.4137
6072,0.0296,-0.0031,9.7818,-0.2780,-0.0004,-0.1177,12.0140,10.9550,-39.2454
6080,0.0327,-0.0048,9.7969,-0.2321,-0.1144,-0.0370,11.9611,10.9082,-39.0795
6088,0.0260,-0.0078,9.8028,-0.2495,-0.2741,-0.1118,11.9086,10.8617,-38.9145
6096,0.0259,-0.0096,9.7931,-0.2662,-0.2962,-0.1088,11.8563,10.8156,-38.7504
6104,0.0180,-0.0098,9.7925,-0.2475,-0.2853,-0.1458,11.8044,10.7626,-38.5872
6112,0.0058,-0.0060,9.7966,-0.2562,-0.2241,-0.1412,11.7528,10.7101,-38.4249
6120,-0.0001,-0.0097,9.8011,-0.2886,-0.3017,-0.1075,11.7099,10.6747,-38.2649
6128,0.0058,-0.0191,9.8084,-0.2102,-0.3386,-0.1233,11.6658,10.6339,-38.1044
6136,0.0163,-0.0161,9.8100,-0.1620,-0.3204,-0.1250,11.6218,10.5933,-37.9447
6144,0.0166,-0.0117,9.8060,-0.1878,-0.3218,-0.0493,11.5740,10.5420,-37.7955
6152,0.0205,-0.0003,9.8120,-0.2125,-0.3738,-0.1103,11.5399,10.4979,-37.6402
6160,0.0236,0.0068,9.8041,-0.1588,-0.4741,-0.0353,11.4925,10.4474,-37.4763
6168,0.0237,0.0182,9.8020,-0.1768,-0.4634,-0.1822,11.4599,10.4065,-37.3240
6176,0.0220,0.0075,9.7988,-0.0820,-0.4692,-0.1467,11.4273,10.3659,-37.1726
6184,0.0122,0.0102,9.8027,-0.0686,-0.5414,-0.2087,11.3948,10.3255,-37.0219
6192,0.0106,0.0095,9.8003,-0.0452,-0.6051,-0.1694,11.3544,10.2801,-36.8615
6200,0.0115,0.0033,9.8159,-0.0948,-0.6420,-0.1958,11.3143,10.2350,-36.7022
6208,0.0214,0.0037,9.8191,-0.0036,-0.6133,-0.2477,11.2602,10.1851,-36.5539
6216,0.0244,0.0008,9.8174,0.0730,-0.6071,-0.1827,11.2065,10.1356,-36.4065
6224,0.0344,-0.0173,9.7995,0.1142,-0.6573,-0.1685,11.1532,10.0865,-36.2598
6232,0.0348,-0.0491,9.7965,0.1883,-0.6626,-0.2002,11.1115,10.0452,-36.1163
6240,0.0370,-0.0320,9.8038,0.2725,-0.7316,-0.2146,11.0662,9.9980,-35.9699
6248,0.0290,-0.0337,9.8090,0.2863,-0.7817,-0.1537,11.0188,9.9610,-35.8155
6256,0.0345,-0.0312,9.8165,0.2302,-0.8429,-0.1888,10.9716,9.9242,-35.6621
6264,0.0354,-0.0276,9.8150,0.3019,-0.8000,-0.1156,10.9210,9.8875,-35.5058
6272,0.0389,-0.0174,9.8069,0.3971,-0.8284,-0.2137,10.8647,9.8534,-35.3626
6280,0.0375,-0.0156,9.8114,0.4721,-0.8849,-0.2275,10.8269,9.8075,-35.2057
6288,0.0267,-0.0198,9.8114,0.4132,-0.9656,-0.2380,10.7892,9.7620,-35.0498
6296,0.0397,-0.0191,9.8113,0.4502,-0.9147,-0.1494,10.7516,9.7167,-34.8948
6304,0.0423,-0.0120,9.8117,0.4483,-0.8021,-0.1927,10.7059,9.6776,-34.7584
6312,0.0288,-0.0116,9.8171,0.4251,-0.8677,-0.1834,10.6606,9.6388,-34.6226
6320,0.0234,-0.0094,9.8234,0.4189,-0.9358,-0.2065,10.6235,9.6036,-34.4782
6328,0.0239,0.0018,9.8240,0.4423,-0.9182,-0.2206,10.5867,9.5687,-34.3346
6336,0.0249,0.0073,9.8260,0.4247,-0.8668,-0.2954,10.5442,9.5304,-34.1975
6344,0.0317,0.0118,9.8286,0.4292,-0.8016,-0.2629,10.5032,9.4913,-34.0543
6352,0.0333,0.0218,9.8306,0.3936,-0.7499,-0.2799,10.4532,9.4569,-33.9164
6360,0.0320,0.0263,9.8201,0.3941,-0.6844,-0.3201,10.4126,9.4181,-33.7747
6368,0.0294,0.0304,9.8147,0.4293,-0.7125,-0.2919,10.3722,9.3796,-33.6338
6376,0.0244,0.0564,9.8280,0.3802,-0.7368,-0.2703,10.3309,9.3347,-33.5004
6384,0.0367,0.0353,9.8373,0.3734,-0.6879,-0.2496,10.2931,9.3033,-33.3543
6392,0.0333,0.0267,9.8384,0.2068,-0.6119,-0.2645,10.2555,9.2699,-33.2168
6400,0.0274,0.0308,9.8340,0.1542,-0.5471,-0.2600,10.2181,9.2366,-33.0800
6408,0.0208,0.0404,9.8341,0.1812,-0.4746,-0.3198,10.1808,9.2035,-32.9440
6416,0.0179,0.0454,9.8337,0.1590,-0.4879,-0.2756,10.1394,9.1576,-32.8054
6424,0.0236,0.0477,9.8411,0.1004,-0.5219,-0.3427,10.0982,9.1120,-32.6677
6432,0.0232,0.0406,9.8410,0.0791,-0.5438,-0.1988,10.0573,9.0753,-32.5253
6440,0.0206,0.0374,9.8436,-0.0319,-0.5620,-0.1733,10.0165,9.0388,-32.3838
6448,0.0150,0.0363,9.8405,-0.1274,-0.5395,-0.0688,9.9760,9.0131,-32.2504
6456,0.0032,0.0258,9.8354,-0.1575,-0.5899,-0.1049,9.9441,8.9779,-32.1167
6464,-0.0016,0.0272,9.8313,-0.1542,-0.5795,-0.0862,9.9050,8.9430,-31.9911
6472,0.0104,0.0212,9.8293,-0.1883,-0.5188,-0.0149,9.8661,8.9135,-31.8639
6480,0.0067,0.0121,9.8166,-0.1943,-0.5115,0.0427,9.8274,8.8841,-31.7375
6488,0.0052,0.0139,9.8175,-0.1894,-0.5258,-0.0010,9.7940,8.8527,-31.6116
6496,0.0139,0.0059,9.8141,-0.2914,-0.4836,-0.0348,9.7608,8.8215,-31.4864
6504,0.0222,0.0106,9.8074,-0.3036,-0.4858,-0.0270,9.7277,8.7976,-31.3639
6512,0.0174,0.0116,9.7996,-0.3472,-0.4452,-0.0516,9.6947,8.7737,-31.2420
6520,0.0121,0.0103,9.7911,-0.3703,-0.4545,-0.0912,9.6618,8.7499,-31.1207
6528,0.0083,0.0050,9.7884,-0.4377,-0.3806,-0.1103,9.6341,8.7091,-30.9999
6536,0.0089,0.0070,9.8015,-0.4888,-0.4113,-0.1286,9.6065,8.6686,-30.8798
6544,0.0054,0.0011,9.7983,-0.4497,-0.3847,-0.1621,9.5740,8.6284,-30.7672
6552,-0.0106,0.0048,9.7931,-0.4576,-0.3059,-0.0342,9.5357,8.5944,-30.6521
6560,-0.0159,0.0109,9.8017,-0.4785,-0.1479,-0.0185,9.4977,8.5605,-30.5376
6568,-0.0116,0.0206,9.7980,-0.4398,-0.1862,0.0232,9.4598,8.5142,-30.4119
6576,-0.0177,0.0188,9.8015,-0.3522,-0.1801,0.0497,9.4241,8.4885,-30.2888
6584,-0.0247,0.0145,9.8138,-0.3777,-0.1289,0.1071,9.3818,8.4581,-30.1712
6592,-0.0314,0.0257,9.8112,-0.4208,-0.1066,-0.0061,9.3397,8.4279,-30.0542
6600,-0.0270,0.0316,9.8048,-0.4006,-0.1706,0.0324,9.3017,8.4007,-29.9415
6608,-0.0102,0.0338,9.8168,-0.4667,-0.2026,-0.0775,9.2640,8.3736,-29.8294
6616,-0.0051,0.0340,9.8322,-0.4525,-0.0837,-0.1132,9.2235,8.3494,-29.7150
6624,0.0050,0.0246,9.8238,-0.4603,-0.0874,-0.1554,9.1834,8.3254,-29.6011
6632,0.0014,0.0266,9.8176,-0.4598,-0.0963,-0.0917,9.1434,8.3014,-29.4878
6640,0.0036,0.0243,9.8238,-0.5259,-0.1261,-0.1642,9.1083,8.2747,-29.3751
6648,0.0042,0.0299,9.8239,-0.5358,-0.1120,-0.2068,9.0725,8.2499,-29.2573
6656,0.0088,0.0314,9.8177,-0.4947,-0.1038,-0.1649,9.0406,8.2262,-29.1391
6664,0.0067,0.0222,9.8266,-0.4233,-0.1466,-0.1915,9.0051,8.1943,-29.0318
6672,0.0015,0.0272,9.8370,-0.3870,-0.1129,-0.2889,8.9698,8.1626,-28.9249
6680,0.0010,0.0312,9.8386,-0.3497,-0.0967,-0.4034,8.9457,8.1338,-28.8157
6688,0.0014,0.0289,9.8392,-0.3140,-0.1531,-0.4702,8.9034,8.1051,-28.7035
6696,0.0018,0.0314,9.8251,-0.3172,-0.2311,-0.5101,8.8686,8.0783,-28.5981
6704,0.0021,0.0295,9.8224,-0.2909,-0.2444,-0.5376,8.8295,8.0400,-28.4933
6712,0.0047,0.0415,9.8240,-0.2764,-0.2571,-0.5692,8.7906,8.0019,-28.3889
6720,0.0098,0.0450,9.8214,-0.3186,-0.3759,-0.5088,8.7520,7.9641,-28.2850
6728,-0.0011,0.0446,9.8209,-0.3242,-0.3881,-0.4777,8.7153,7.9336,-28.1726
6736,-0.0001,0.0542,9.8090,-0.2656,-0.3625,-0.4106,8.6789,7.9032,-28.0609
6744,0.0068,0.0680,9.7955,-0.1989,-0.3274,-0.4078,8.6443,7.8783,-27.9611
6752,0.0007,0.0471,9.7934,-0.1565,-0.3871,-0.2717,8.6100,7.8535,-27.8618
6760,0.0016,0.0497,9.8078,-0.2039,-0.2815,-0.2376,8.5785,7.8280,-27.7429
6768,0.0143,0.0383,9.8113,-0.1239,-0.2499,-0.1490,8.5488,7.7947,-27.6341
6776,0.0111,0.0317,9.8190,-0.1141,-0.3024,-0.1310,8.5167,7.7729,-27.5242
6784,0.0151,0.0367,9.8169,-0.1553,-0.2912,-0.0444,8.4804,7.7511,-27.4148
6792,0.0156,0.0238,9.8181,-0.1628,-0.3765,-0.0469,8.4444,7.7294,-27.3145
6800,0.0160,0.0181,9.8020,-0.3006,-0.2367,-0.1373,8.4110,7.6967,-27.2104
6808,0.0145,0.0203,9.8069,-0.1870,-0.2471,-0.1704,8.3779,7.6642,-27.1069
6816,0.0164,0.0226,9.8191,-0.2544,-0.2410,-0.1408,8.3415,7.6395,-27.0046
6824,0.0044,0.0152,9.8161,-0.2789,-0.2591,-0.0938,8.3053,7.6149,-26.9029
6832,0.0008,0.0190,9.8151,-0.2623,-0.2205,-0.1155,8.2694,7.5904,-26.8016
6840,0.0072,0.0197,9.8207,-0.2437,-0.2635,-0.0589,8.2352,7.5618,-26.7025
6848,0.0020,0.0217,9.8193,-0.2580,-0.2727,-0.1888,8.2013,7.5333,-26.6039
6856,0.0037,0.0221,9.8139,-0.2610,-0.1908,-0.2036,8.1692,7.5059,-26.5049
6864,-0.0007,0.0202,9.8209,-0.2851,-0.0859,-0.1645,8.1373,7.4786,-26.4063
6872,0.0053,0.0130,9.8186,-0.2949,-0.0308,-0.1085,8.1097,7.4390,-26.3065
6880,0.0044,0.0034,9.8215,-0.3283,-0.0822,-0.0575,8.0788,7.4087,-26.2081
6888,0.0022,-0.0091,9.8237,-0.3415,-0.1419,-0.1075,8.0433,7.3818,-26.1093
6896,-0.0021,-0.0025,9.8180,-0.4582,-0.2124,-0.1286,8.0160,7.3494,-26.0125
6904,0.0082,-0.0066,9.8141,-0.4364,-0.2345,-0.1061,7.9889,7.3172,-25.9163
6912,-0.0030,-0.0158,9.8220,-0.4289,-0.1996,-0.2179,7.9546,7.2965,-25.8237
6920,0.0183,-0.0268,9.8169,-0.4164,-0.1929,-0.1355,7.9205,7.2758,-25.7315
6928,0.0262,-0.0282,9.8218,-0.4018,-0.1119,-0.2274,7.8955,7.2351,-25.6349
6936,0.0315,-0.0289,9.8130,-0.4438,-0.1703,-0.2086,7.8705,7.1947,-25.5388
6944,0.0299,-0.0200,9.8133,-0.4333,-0.1596,-0.0679,7.8456,7.1545,-25.4431
6952,0.0294,-0.0102,9.8080,-0.4526,-0.1573,-0.0214,7.8257,7.1321,-25.3527
6960,0.0184,0.0575,9.8288,-0.4231,-0.1258,0.2711,7.8010,7.1066,-25.2515
6968,-0.0061,0.0992,9.8248,-0.3975,-0.2557,0.6974,7.7748,7.0773,-25.1571
6976,-0.0132,0.1045,9.8253,-0.4210,-0.3345,0.8864,7.7487,7.0482,-25.0632
6984,-0.0110,0.0811,9.8194,-0.3982,-0.2206,0.9765,7.7165,7.0192,-24.9737
6992,-0.0076,0.0636,9.8227,-0.4084,-0.2130,1.0547,7.6954,6.9895,-24.8853
7000,0.0064,0.0468,9.8316,-0.4474,-0.4004,1.1134,7.6704,6.9577,-24.7935
7008,0.0004,0.0549,9.8215,-0.4661,-0.4302,1.2656,7.6409,6.9370,-24.7012
7016,0.0045,0.0449,9.8323,-0.4733,-0.4348,1.2671,7.6116,6.9163,-24.6094
7024,0.0100,0.0426,9.8161,-0.3869,-0.3271,1.4793,7.5878,6.8880,-24.5235
7032,0.0182,0.0347,9.8125,-0.4775,-0.2375,1.5514,7.5640,6.8599,-24.4379
7040,0.0270,0.0439,9.8119,-0.3402,-0.2985,1.7084,7.5396,6.8349,-24.3427
7048,0.0277,0.0381,9.8091,-0.3769,-0.2101,1.6666,7.5154,6.8101,-24.2479
7056,0.0297,0.0347,9.7969,-0.3240,-0.1043,1.7999,7.4912,6.7854,-24.1536
7064,0.0278,0.0170,9.8051,-0.3721,-0.0858,1.7887,7.4663,6.7639,-24.0658
7072,0.0179,0.0106,9.8070,-0.3808,-0.0761,1.7940,7.4393,6.7424,-23.9747
7080,0.0158,0.0185,9.8010,-0.3810,-0.0375,1.7565,7.4109,6.7188,-23.8900
7088,0.0098,0.0270,9.8083,-0.4506,-0.0699,1.6032,7.3849,6.6953,-23.8057
7096,-0.0016,0.0273,9.8141,-0.4638,-0.0822,1.7099,7.3590,6.6734,-23.7225
7104,-0.0050,0.0149,9.8115,-0.4845,-0.0619,1.6787,7.3332,6.6531,-23.6344
7112,-0.0186,0.0237,9.8265,-0.5042,-0.0933,1.7181,7.3097,6.6292,-23.5482
7120,-0.0213,0.0659,9.8327,-0.5631,-0.1686,1.6679,7.2864,6.6053,-23.4624
7128,-0.0293,0.0639,9.8247,-0.5554,-0.0832,1.7025,7.2632,6.5816,-23.3770
7136,-0.0192,0.0785,9.8248,-0.6067,0.0064,1.7115,7.2371,6.5491,-23.2890
7144,-0.0150,0.0594,9.8317,-0.6317,0.0174,1.8216,7.2111,6.5167,-23.2014
7152,-0.0031,0.0513,9.8279,-0.6210,0.0226,1.7508,7.1860,6.4897,-23.1186
7160,0.0159,0.0398,9.8226,-0.6401,-0.0071,1.8137,7.1609,6.4629,-23.0362
7168,0.0341,0.0462,9.8188,-0.6370,-0.0141,1.8260,7.1360,6.4362,-22.9542
7176,0.0354,0.0275,9.8135,-0.6341,-0.0876,1.9763,7.0995,6.4140,-22.8682
7184,0.0266,0.0328,9.8092,-0.7166,-0.0778,2.1014,7.0705,6.3868,-22.7825
7192,0.0178,0.0345,9.8002,-0.6409,-0.0311,2.2557,7.0417,6.3648,-22.6994
7200,0.0252,0.0428,9.7958,-0.7338,0.0403,2.3019,7.0173,6.3386,-22.6210
7208,0.0220,0.0453,9.8068,-0.7612,-0.0009,2.3248,6.9931,6.3125,-22.5430
7216,0.0013,0.0726,9.8072,-0.8195,0.0238,2.2267,6.9653,6.2865,-22.4617
7224,-0.0207,0.0933,9.8176,-0.8673,0.0527,2.1941,6.9341,6.2643,-22.3857
7232,-0.0364,0.1138,9.8024,-0.9449,-0.0103,2.2004,6.9030,6.2422,-22.3101
7240,-0.0407,0.1191,9.8105,-1.0992,-0.0465,2.0970,6.8793,6.2165,-22.2284
7248,-0.0304,0.0888,9.8119,-1.1294,-0.0412,1.9449,6.8557,6.1911,-22.1471
7256,-0.0279,0.0820,9.8013,-1.1316,-0.0068,1.8153,6.8322,6.1657,-22.0661
7264,-0.0247,0.1413,9.8013,-1.1630,0.0395,1.5982,6.8038,6.1369,-21.9819
7272,-0.0096,0.1204,9.8036,-1.2064,0.0171,1.3478,6.7791,6.1133,-21.8981
7280,0.0041,0.1715,9.7957,-1.2319,-0.0497,1.0124,6.7474,6.0897,-21.8196
7288,0.0152,0.1846,9.8112,-1.2696,-0.1056,0.5797,6.7159,6.0663,-21.7415
7296,0.0129,0.1850,9.8158,-1.1803,-0.1110,0.0699,6.6916,6.0485,-21.6623
7304,0.0199,0.2191,9.8130,-1.2496,-0.1748,-0.3723,6.6604,6.0295,-21.5884
7312,0.0358,0.2185,9.8206,-1.2519,-0.1612,-0.7978,6.6378,6.0105,-21.5077
7320,0.0361,0.2107,9.8274,-1.2301,-0.1855,-1.3754,6.6152,5.9916,-21.4275
7328,0.0368,0.1763,9.8281,-1.2092,-0.2168,-1.7197,6.5824,5.9673,-21.3525
7336,0.0270,0.1798,9.8301,-1.3386,-0.2627,-2.1023,6.5621,5.9486,-21.2798
7344,0.0272,0.0968,9.8283,-1.3476,-0.2266,-2.4601,6.5420,5.9299,-21.2075
7352,0.0133,0.0947,9.8308,-1.3589,-0.1254,-2.9277,6.5164,5.9093,-21.1272
7360,0.0043,0.0426,9.8152,-1.2071,-0.1139,-3.3507,6.4909,5.8888,-21.0473
7368,-0.0124,0.0588,9.8330,-1.2006,-0.0923,-3.8647,6.4656,5.8683,-20.9677
7376,0.0020,0.0712,9.8273,-1.2103,-0.0690,-4.3748,6.4431,5.8487,-20.8939
7384,-0.0004,0.0309,9.8339,-1.1663,-0.0680,-4.9026,6.4173,5.8312,-20.8137
7392,-0.0140,0.0368,9.8267,-1.1349,-0.1284,-5.4153,6.3992,5.8089,-20.7351
7400,-0.0349,-0.0744,9.8325,-1.0275,-0.1195,-5.7669,6.3810,5.7868,-20.6569
7408,-0.0307,-0.1892,9.8282,-1.0608,-0.0336,-5.9618,6.3623,5.7628,-20.5893
7416,-0.0199,-0.2575,9.8293,-0.9273,0.0005,-6.0229,6.3471,5.7422,-20.5138
7424,-0.0207,-0.3166,9.8239,-0.8690,0.0411,-5.9373,6.3285,5.7251,-20.4386
7432,-0.0219,-0.3378,9.8227,-0.7893,0.0933,-5.6901,6.3100,5.7081,-20.3637
7440,-0.0034,-0.3523,9.8325,-0.7344,0.1112,-5.5924,6.2915,5.6912,-20.2892
7448,0.0134,-0.3587,9.8364,-0.7352,0.1576,-5.2776,6.2685,5.6656,-20.2116
7456,0.0163,-0.3280,9.8362,-0.7386,0.3113,-4.9686,6.2455,5.6401,-20.1344
7464,0.0184,-0.3039,9.8206,-0.6592,0.2557,-4.6358,6.2300,5.6207,-20.0589
7472,0.0140,-0.2916,9.8265,-0.5966,0.1491,-4.4455,6.2146,5.6015,-19.9837
7480,0.0223,-0.2823,9.8205,-0.5341,0.0926,-4.2396,6.1992,5.5823,-19.9088
7488,0.0252,-0.2402,9.8169,-0.4877,0.0465,-4.0426,6.1798,5.5672,-19.8316
7496,0.0201,-0.2140,9.8227,-0.4086,0.1784,-3.5423,6.1646,5.5502,-19.7633
7504,0.0073,-0.1930,9.8279,-0.3783,0.2353,-3.1679,6.1467,5.5286,-19.6934
7512,0.0108,-0.1648,9.8149,-0.3094,0.2069,-2.8685,6.1289,5.5071,-19.6237
7520,0.0198,-0.1467,9.8146,-0.2221,0.2198,-2.5661,6.1086,5.4850,-19.5563
7528,0.0184,-0.1311,9.8242,-0.2480,0.2162,-2.3570,6.0903,5.4644,-19.4866
7536,0.0131,-0.1061,9.8243,-0.2407,0.1967,-2.0291,6.0733,5.4439,-19.4198
7544,0.0087,-0.0954,9.8162,-0.2604,0.2367,-1.8035,6.0565,5.4234,-19.3533
7552,0.0107,-0.0638,9.8030,-0.2686,0.3043,-1.4704,6.0397,5.4031,-19.2870
7560,-0.0026,-0.0611,9.7928,-0.2258,0.3290,-1.1626,6.0269,5.3737,-19.2138
7568,-0.0023,-0.0428,9.7918,-0.1875,0.2779,-0.8469,6.0141,5.3444,-19.1410
7576,-0.0125,-0.0094,9.7850,-0.2469,0.3251,-0.5983,5.9923,5.3257,-19.0769
7584,-0.0199,0.0473,9.7788,-0.3064,0.3088,-0.3713,5.9725,5.2980,-19.0073
7592,-0.0294,0.0380,9.7878,-0.4032,0.4586,-0.1168,5.9528,5.2705,-18.9379
7600,-0.0402,0.0428,9.7827,-0.4372,0.3698,0.0731,5.9344,5.2502,-18.8695
7608,-0.0514,0.0562,9.7804,-0.4510,0.3890,0.2468,5.9142,5.2299,-18.8065
7616,-0.0542,0.0292,9.7810,-0.4562,0.4286,0.3809,5.8967,5.2143,-18.7399
7624,-0.0576,0.0344,9.7593,-0.4185,0.4425,0.3997,5.8792,5.1987,-18.6736
7632,-0.0589,0.0696,9.7537,-0.4144,0.4024,0.4685,5.8598,5.1812,-18.6057
7640,-0.0565,0.0728,9.7514,-0.3439,0.5641,0.4302,5.8438,5.1620,-18.5412
7648,-0.0561,0.0597,9.7530,-0.3351,0.4467,0.4309,5.8246,5.1447,-18.4783
7656,-0.0611,0.0296,9.7571,-0.3560,0.4785,0.5116,5.8055,5.1275,-18.4157
7664,-0.0617,0.0097,9.7540,-0.3201,0.4582,0.5328,5.7864,5.1103,-18.3533
7672,-0.0553,0.0172,9.7708,-0.3096,0.3881,0.6197,5.7757,5.0869,-18.2898
7680,-0.0354,0.0026,9.7820,-0.3664,0.3878,0.5961,5.7650,5.0636,-18.2267
7688,-0.0324,-0.0120,9.7856,-0.3779,0.4115,0.4936,5.7511,5.0417,-18.1638
7696,-0.0261,-0.0093,9.7862,-0.3436,0.3674,0.5075,5.7323,5.0249,-18.1043
7704,-0.0172,-0.0087,9.7977,-0.3402,0.3520,0.3955,5.7135,5.0082,-18.0450
7712,0.0041,-0.0049,9.8058,-0.2702,0.3212,0.3124,5.7017,4.9878,-17.9791
7720,0.0037,-0.0097,9.8104,-0.1607,0.2998,0.3236,5.6818,4.9681,-17.9172
7728,0.0007,-0.0181,9.7986,-0.1732,0.1993,0.2864,5.6651,4.9535,-17.8556
7736,-0.0030,-0.0412,9.7989,-0.1479,0.2339,0.2587,5.6434,4.9352,-17.7954
7744,-0.0063,-0.0348,9.8046,-0.1370,0.3257,0.2136,5.6218,4.9169,-17.7355
7752,-0.0052,-0.0418,9.8020,-0.1266,0.2321,0.2051,5.6004,4.8988,-17.6759
7760,-0.0037,-0.0517,9.8097,-0.1380,0.2919,0.1650,5.5783,4.8820,-17.6096
7768,-0.0088,-0.0548,9.8253,-0.2156,0.2291,0.1533,5.5564,4.8652,-17.5437
7776,-0.0056,-0.0539,9.8389,-0.1697,0.2544,0.0142,5.5439,4.8418,-17.4811
7784,-0.0041,-0.0613,9.8354,-0.0672,0.2759,0.0651,5.5313,4.8184,-17.4187
7792,-0.0119,-0.0475,9.8226,-0.0785,0.1364,0.0551,5.5096,4.8019,-17.3536
7800,-0.0144,-0.0241,9.8283,-0.0254,0.1444,0.0642,5.4898,4.7886,-17.2905
7808,-0.0198,-0.0275,9.8175,-0.0305,0.1627,0.0356,5.4738,4.7698,-17.2271
7816,-0.0256,-0.0238,9.8192,0.0259,0.1723,0.0936,5.4560,4.7510,-17.1640
7824,-0.0217,-0.0172,9.8098,0.0212,0.1787,0.1464,5.4382,4.7275,-17.0992
7832,-0.0119,-0.0085,9.8108,-0.0233,0.1902,0.1275,5.4193,4.7101,-17.0409
7840,-0.0125,0.0002,9.8067,0.0114,0.1105,0.1681,5.3956,4.6947,-16.9840
7848,-0.0259,0.0173,9.8057,0.0180,0.1063,0.1883,5.3792,4.6800,-16.9195
7856,-0.0379,0.0231,9.7939,-0.0077,0.0249,0.1356,5.3630,4.6653,-16.8552
7864,-0.0388,0.0262,9.7969,-0.0109,-0.0555,-0.0108,5.3468,4.6506,-16.7911
7872,-0.0278,0.0166,9.8097,-0.0060,-0.0498,-0.1294,5.3343,4.6336,-16.7328
7880,-0.0251,-0.0158,9.8034,-0.0680,-0.0523,-0.2402,5.3218,4.6167,-16.6748
7888,-0.0322,0.0005,9.7955,-0.0846,-0.0334,-0.1382,5.3076,4.5998,-16.6151
7896,-0.0391,0.0053,9.8020,-0.0952,-0.0473,-0.3046,5.2934,4.5830,-16.5557
7904,-0.0235,0.0104,9.8019,-0.0733,0.0034,-0.3091,5.2817,4.5717,-16.4989
7912,-0.0121,-0.0013,9.7959,-0.1003,-0.0734,-0.3667,5.2682,4.5533,-16.4376
7920,-0.0159,-0.0032,9.8024,-0.0515,-0.0403,-0.3658,5.2535,4.5349,-16.3783
7928,-0.0116,-0.0104,9.8050,-0.0795,-0.0299,-0.4556,5.2353,4.5153,-16.3258
7936,-0.0119,-0.0079,9.8088,-0.1276,-0.0653,-0.5388,5.2171,4.4959,-16.2736
7944,-0.0248,0.0022,9.7889,-0.1336,-0.1418,-0.5624,5.2014,4.4807,-16.2150
7952,-0.0169,-0.0078,9.7869,-0.1367,-0.0710,-0.6062,5.1816,4.4632,-16.1590
7960,-0.0198,0.0095,9.7924,-0.0250,0.0394,-0.6588,5.1613,4.4416,-16.1068
7968,-0.0138,-0.0162,9.8001,-0.0622,0.0837,-0.7492,5.1410,4.4201,-16.0548
7976,-0.0120,-0.0108,9.7920,-0.1030,0.0860,-0.7635,5.1209,4.3987,-16.0030
7984,0.0020,-0.0141,9.7993,-0.1128,0.0935,-0.8493,5.1103,4.3798,-15.9478
7992,0.0023,-0.0226,9.7895,-0.1328,-0.0113,-0.8486,5.0997,4.3610,-15.8929
8000,0.0089,-0.0562,9.8006,-0.1225,-0.0501,-0.9413,5.0892,4.3440,-15.8352
8008,-0.0019,-0.0374,9.8103,-0.0994,0.0140,-0.9632,5.0787,4.3270,-15.7777
8016,-0.0135,-0.0478,9.8326,-0.0933,0.1047,-0.9256,5.0670,4.3131,-15.7234
8024,-0.0099,-0.0699,9.8474,-0.1382,0.0528,-0.7909,5.0489,4.2999,-15.6712
8032,-0.0289,-0.0412,9.8431,-0.1677,0.0804,-0.6141,5.0380,4.2790,-15.6208
8040,-0.0170,-0.0020,9.8309,-0.1773,0.0802,-0.4344,5.0247,4.2636,-15.5672
8048,0.0010,-0.0517,9.8436,-0.1865,0.1413,-0.2145,5.0114,4.2482,-15.5138
8056,0.0010,-0.0566,9.8373,-0.0726,0.1198,-0.1376,4.9965,4.2381,-15.4582
8064,0.0019,-0.0432,9.8352,-0.1076,0.0992,-0.1494,4.9816,4.2281,-15.4028
8072,0.0136,-0.0130,9.8193,-0.1092,0.0288,-0.1900,4.9743,4.2128,-15.3500
8080,0.0137,-0.0575,9.8294,-0.1373,0.0175,-0.2635,4.9670,4.1976,-15.2974
8088,0.0083,-0.0641,9.8226,-0.1269,0.0200,-0.3364,4.9598,4.1824,-15.2450
8096,0.0067,-0.0637,9.8288,-0.1570,0.0838,-0.4355,4.9462,4.1685,-15.1876
8104,0.0111,-0.0944,9.8271,-0.1563,0.1981,-0.3276,4.9331,4.1506,-15.1368
8112,0.0033,-0.0893,9.8315,-0.1424,0.1634,-0.2751,4.9161,4.1327,-15.0891
8120,0.0194,-0.0660,9.8341,-0.1505,0.2342,-0.3715,4.9066,4.1150,-15.0416
8128,0.0126,-0.0518,9.8401,-0.1181,0.1579,-0.4824,4.8972,4.0996,-14.9862
8136,0.0210,-0.0685,9.8442,-0.0739,0.1837,-0.5351,4.8878,4.0813,-14.9327
8144,0.0159,-0.0331,9.8255,-0.0796,0.1309,-0.5295,4.8749,4.0730,-14.8760
8152,0.0199,-0.0507,9.8264,-0.1757,0.0858,-0.6468,4.8610,4.0601,-14.8235
8160,0.0249,-0.0338,9.8277,-0.2356,0.1600,-0.5723,4.8470,4.0473,-14.7712
8168,0.0134,-0.0645,9.8325,-0.2395,0.0763,-0.6557,4.8360,4.0327,-14.7209
8176,0.0086,-0.0846,9.8300,-0.2966,0.0923,-0.5408,4.8250,4.0182,-14.6707
8184,0.0051,-0.0836,9.8263,-0.2553,0.0542,-0.7403,4.8089,4.0078,-14.6116
8192,0.0078,-0.0923,9.8190,-0.2797,0.0045,-0.6564,4.7929,3.9975,-14.5527
8200,0.0140,-0.0947,9.8237,-0.2870,0.0609,-0.8002,4.7768,3.9872,-14.4941
8208,0.0122,-0.0878,9.8197,-0.2487,0.0429,-0.7243,4.7603,3.9763,-14.4431
8216,0.0097,-0.0865,9.8294,-0.2468,0.0843,-0.7238,4.7461,3.9689,-14.3889
8224,0.0107,-0.0881,9.8349,-0.2342,-0.0041,-0.7259,4.7297,3.9564,-14.3373
8232,0.0084,-0.0617,9.8249,-0.2222,0.0074,-0.7893,4.7179,3.9434,-14.2892
8240,0.0131,-0.0438,9.8272,-0.2401,-0.0056,-0.9486,4.7061,3.9304,-14.2414
8248,0.0073,-0.0107,9.8202,-0.2599,0.0513,-1.1675,4.6927,3.9180,-14.1903
8256,0.0076,-0.0177,9.8116,-0.2414,-0.0063,-1.2996,4.6821,3.9012,-14.1366
8264,0.0124,-0.0326,9.8111,-0.2584,-0.0481,-1.4099,4.6716,3.8844,-14.0831
8272,-0.0038,-0.0147,9.8151,-0.2267,-0.1734,-1.5340,4.6588,3.8756,-14.0344
8280,0.0003,-0.0509,9.8193,-0.1964,-0.1065,-1.6447,4.6461,3.8668,-13.9858
8288,-0.0052,-0.0468,9.8253,-0.1647,-0.0079,-1.6893,4.6334,3.8581,-13.9375
8296,0.0017,-0.0430,9.8290,-0.1904,-0.0522,-1.6412,4.6179,3.8522,-13.8882
8304,0.0030,-0.0761,9.8195,-0.2577,-0.0706,-1.7125,4.6025,3.8464,-13.8391
8312,0.0046,-0.0723,9.8192,-0.3007,-0.0643,-1.6981,4.5933,3.8270,-13.7925
8320,0.0037,-0.0743,9.8216,-0.3418,0.0005,-1.7670,4.5842,3.8077,-13.7460
8328,0.0039,-0.0666,9.8233,-0.3038,-0.0575,-1.8088,4.5717,3.7964,-13.7003
8336,0.0108,-0.0523,9.8153,-0.2887,0.0256,-1.8142,4.5581,3.7851,-13.6503
8344,0.0071,-0.0544,9.8144,-0.1917,0.0545,-1.6140,4.5451,3.7733,-13.6027
8352,0.0193,-0.0194,9.8082,-0.1976,0.1300,-1.5559,4.5322,3.7615,-13.5553
8360,0.0166,0.0036,9.7934,-0.1205,0.1357,-1.6710,4.5221,3.7442,-13.5070
8368,0.0260,-0.0056,9.7883,-0.1028,0.1463,-1.7463,4.5131,3.7309,-13.4600
8376,0.0103,-0.0081,9.7941,-0.1606,0.1299,-1.6611,4.5042,3.7176,-13.4132
8384,-0.0006,0.0007,9.8066,-0.2318,0.1142,-1.7022,4.4942,3.7116,-13.3654
8392,0.0004,-0.0183,9.8097,-0.2386,0.0485,-1.5923,4.4842,3.7057,-13.3179
8400,-0.0151,-0.0373,9.7944,-0.2051,-0.0117,-1.4551,4.4742,3.6997,-13.2705
8408,-0.0086,-0.0336,9.8014,-0.0184,-0.0425,-1.3426,4.4610,3.6916,-13.2211
8416,0.0059,-0.0611,9.7973,0.0828,-0.0454,-1.1203,4.4511,3.6801,-13.1741
8424,-0.0009,-0.0592,9.8014,0.0863,-0.1307,-0.9532,4.4367,3.6743,-13.1311
8432,0.0060,-0.0775,9.8055,0.0789,-0.0444,-0.8893,4.4225,3.6684,-13.0884
8440,0.0110,-0.0950,9.8037,0.0799,-0.0231,-0.7695,4.4110,3.6598,-13.0402
8448,0.0141,-0.1231,9.8094,0.1662,0.0318,-0.7163,4.3980,3.6479,-12.9945
8456,0.0082,-0.1326,9.8182,0.0860,0.0737,-0.6708,4.3871,3.6361,-12.9473
8464,0.0130,-0.1284,9.8143,0.1613,0.1085,-0.6113,4.3730,3.6292,-12.9041
8472,0.0140,-0.1210,9.8085,0.1266,0.0297,-0.5783,4.3590,3.6224,-12.8612
8480,0.0128,-0.1115,9.8047,0.1682,-0.0190,-0.4882,4.3472,3.6146,-12.8189
8488,0.0161,-0.1094,9.8048,0.0266,-0.0788,-0.4526,4.3354,3.6067,-12.7768
8496,0.0197,-0.1074,9.8118,0.0565,-0.0961,-0.4666,4.3287,3.5939,-12.7326
8504,0.0137,-0.0997,9.8090,0.0424,-0.1313,-0.5920,4.3219,3.5812,-12.6886
8512,0.0125,-0.0905,9.7982,0.0557,-0.2182,-0.5146,4.3152,3.5685,-12.6448
8520,0.0027,-0.0971,9.7958,0.0763,-0.1947,-0.5845,4.3024,3.5580,-12.6034
8528,0.0025,-0.0576,9.7877,0.1521,-0.2122,-0.6141,4.2941,3.5525,-12.5533
8536,0.0000,-0.0210,9.7821,0.0991,-0.1223,-0.6397,4.2830,3.5416,-12.5089
8544,-0.0090,-0.0074,9.7849,0.1206,-0.1457,-0.6482,4.2720,3.5307,-12.4647
8552,-0.0177,-0.0197,9.8024,0.1117,-0.2373,-0.7230,4.2599,3.5242,-12.4218
8560,-0.0214,0.0016,9.8078,0.0659,-0.2157,-0.7412,4.2550,3.5112,-12.3768
8568,-0.0266,0.0003,9.8131,0.1208,-0.1789,-0.6492,4.2429,3.4977,-12.3304
8576,-0.0395,0.0146,9.8261,0.1279,-0.2105,-0.6839,4.2310,3.4842,-12.2841
8584,-0.0498,0.0817,9.8242,0.0414,-0.1873,-0.5385,4.2190,3.4708,-12.2380
8592,-0.0505,0.1243,9.8293,0.0600,-0.1865,-0.4501,4.2087,3.4607,-12.1981
8600,-0.0443,0.1514,9.8353,0.0031,-0.2017,-0.4775,4.1984,3.4507,-12.1584
8608,-0.0601,0.1777,9.8321,0.0261,-0.2482,-0.5731,4.1860,3.4423,-12.1133
8616,-0.0675,0.1615,9.8210,-0.0293,-0.1487,-0.5658,4.1786,3.4350,-12.0712
8624,-0.0656,0.1468,9.8323,-0.1170,-0.1523,-0.6122,4.1711,3.4278,-12.0292
8632,-0.0375,0.1722,9.8526,-0.1181,-0.2410,-0.5206,4.1647,3.4189,-11.9933
8640,-0.0361,0.1870,9.8427,-0.2125,-0.1871,-0.5663,4.1524,3.4134,-11.9500
8648,-0.0281,0.1840,9.8424,-0.2255,-0.2423,-0.5620,4.1412,3.4035,-11.9112
8656,-0.0317,0.1786,9.8449,-0.2299,-0.2098,-0.5845,4.1301,3.3936,-11.8725
8664,-0.0364,0.1732,9.8508,-0.1807,-0.2266,-0.5581,4.1200,3.3865,-11.8297
8672,-0.0379,0.1601,9.8593,-0.2084,-0.2214,-0.5142,4.1138,3.3805,-11.7881
8680,-0.0311,0.1624,9.8524,-0.1709,-0.2484,-0.6348,4.1033,3.3799,-11.7439
8688,-0.0313,0.1125,9.8430,-0.2310,-0.2556,-0.7662,4.0928,3.3793,-11.6999
8696,-0.0155,0.1198,9.8441,-0.1845,-0.2438,-0.9345,4.0823,3.3787,-11.6561
8704,-0.0058,0.1004,9.8505,-0.1880,-0.2698,-1.0180,4.0713,3.3716,-11.6157
8712,0.0021,0.1034,9.8431,-0.2420,-0.1427,-1.2100,4.0604,3.3645,-11.5755
8720,-0.0021,0.1175,9.8400,-0.1737,-0.2105,-1.2869,4.0489,3.3568,-11.5348
8728,-0.0046,0.1110,9.8313,-0.1884,-0.2460,-1.3977,4.0407,3.3498,-11.4959
8736,-0.0132,0.1007,9.8321,-0.2397,-0.2880,-1.4797,4.0325,3.3427,-11.4572
8744,-0.0229,0.0895,9.8347,-0.3475,-0.2401,-1.5075,4.0255,3.3384,-11.4159
8752,-0.0293,0.0981,9.8356,-0.3279,-0.2316,-1.3100,4.0179,3.3308,-11.3705
8760,-0.0360,0.1017,9.8150,-0.3145,-0.2475,-1.2145,4.0097,3.3265,-11.3339
8768,-0.0403,0.0840,9.7905,-0.3736,-0.2814,-1.1845,4.0011,3.3216,-11.2968
8776,-0.0182,0.0466,9.7984,-0.4115,-0.3138,-1.3239,3.9925,3.3167,-11.2599
8784,-0.0114,-0.0045,9.8101,-0.3518,-0.4141,-1.2598,3.9818,3.3167,-11.2183
8792,-0.0157,-0.0102,9.8074,-0.3240,-0.3874,-1.1611,3.9775,3.3096,-11.1769
8800,0.0004,-0.0291,9.8068,-0.2414,-0.3191,-1.0428,3.9732,3.3026,-11.1356
8808,-0.0010,-0.0452,9.8100,-0.3144,-0.2139,-1.0870,3.9679,3.3026,-11.0998
8816,0.0019,-0.0425,9.8132,-0.2376,-0.2972,-0.9586,3.9626,3.3025,-11.0641
8824,0.0013,-0.0765,9.7953,-0.2628,-0.2969,-0.8278,3.9572,3.3024,-11.0286
8832,0.0058,-0.0663,9.7927,-0.1802,-0.3366,-0.6334,3.9514,3.2964,-10.9874
8840,0.0030,-0.0871,9.7917,-0.2106,-0.3346,-0.4448,3.9429,3.2889,-10.9473
8848,0.0051,-0.0303,9.7680,-0.2076,-0.4313,-0.4272,3.9329,3.2813,-10.9075
8856,0.0142,-0.0268,9.7748,-0.1702,-0.4385,-0.3650,3.9228,3.2791,-10.8667
8864,0.0293,-0.0491,9.7710,-0.1050,-0.2934,-0.2521,3.9155,3.2785,-10.8244
8872,0.0320,-0.0328,9.7725,-0.0693,-0.3332,-0.1682,3.9108,3.2778,-10.7850
8880,0.0258,-0.0222,9.7784,-0.0565,-0.3367,-0.0480,3.9014,3.2751,-10.7442
8888,0.0257,-0.0572,9.7975,-0.0896,-0.3080,-0.0051,3.8920,3.2723,-10.7035
8896,0.0392,-0.0447,9.7910,-0.1426,-0.2406,0.0067,3.8826,3.2695,-10.6629
8904,0.0433,-0.0248,9.8025,-0.2013,-0.2481,0.2286,3.8754,3.2609,-10.6214
8912,0.0292,-0.0281,9.7814,-0.1801,-0.2846,0.3661,3.8681,3.2523,-10.5801
8920,0.0187,-0.0084,9.7742,-0.2105,-0.3142,0.5003,3.8615,3.2522,-10.5490
8928,0.0211,0.0250,9.7759,-0.2502,-0.3772,0.7833,3.8548,3.2520,-10.5180
8936,-0.0014,0.0301,9.7542,-0.2028,-0.4747,1.0939,3.8477,3.2524,-10.4797
8944,-0.0071,0.0302,9.7518,-0.2669,-0.4400,1.3056,3.8384,3.2549,-10.4400
8952,0.0118,0.0681,9.7515,-0.1975,-0.4681,1.3827,3.8329,3.2552,-10.4036
8960,0.0212,0.0777,9.7531,-0.1658,-0.4203,1.3791,3.8263,3.2591,-10.3678
8968,0.0311,0.0733,9.7613,-0.2394,-0.4066,1.4397,3.8197,3.2630,-10.3322
8976,0.0328,0.0784,9.7583,-0.2379,-0.3642,1.4496,3.8106,3.2669,-10.2941
8984,0.0224,0.1258,9.7560,-0.2711,-0.3050,1.4324,3.8030,3.2654,-10.2572
8992,0.0312,0.1359,9.7476,-0.3348,-0.1577,1.2346,3.7981,3.2650,-10.2230
9000,0.0151,0.0977,9.7614,-0.3477,-0.1502,1.0108,3.7931,3.2645,-10.1890
9008,0.0151,0.0963,9.7556,-0.3708,-0.1670,0.8848,3.7882,3.2640,-10.1550
9016,-0.0054,0.0760,9.7618,-0.4648,-0.1937,0.6550,3.7771,3.2687,-10.1202
9024,-0.0062,0.0635,9.7801,-0.4587,-0.2619,0.4352,3.7659,3.2734,-10.0855
9032,-0.0138,0.0682,9.7867,-0.5223,-0.2898,0.2357,3.7580,3.2764,-10.0530
9040,-0.0165,0.0368,9.7653,-0.5030,-0.1539,0.2130,3.7500,3.2793,-10.0206
9048,-0.0090,0.0463,9.7423,-0.5059,-0.0878,-0.0515,3.7463,3.2812,-9.9826
9056,-0.0035,-0.0130,9.7716,-0.5887,-0.2087,-0.1470,3.7383,3.2851,-9.9479
9064,-0.0186,0.0030,9.7685,-0.6199,-0.1589,-0.4304,3.7341,3.2880,-9.9143
9072,-0.0141,-0.0103,9.7598,-0.6230,-0.0394,-0.7280,3.7262,3.2866,-9.8782
9080,-0.0054,-0.0013,9.7752,-0.6447,-0.0770,-0.9353,3.7184,3.2852,-9.8423
9088,0.0161,-0.0165,9.8023,-0.6041,-0.0970,-1.1735,3.7121,3.2884,-9.8086
9096,0.0073,0.0131,9.7894,-0.5599,-0.0601,-1.2680,3.7058,3.2916,-9.7750
9104,0.0267,0.0508,9.8038,-0.5390,-0.0595,-1.2383,3.6986,3.2999,-9.7442
9112,0.0438,0.0402,9.7922,-0.5857,-0.1336,-1.3727,3.6913,3.3081,-9.7134
9120,0.0579,0.0444,9.7917,-0.6224,-0.2418,-1.3731,3.6841,3.3163,-9.6828
9128,0.0771,0.0253,9.8031,-0.6547,-0.2946,-1.3762,3.6732,3.3217,-9.6497
9136,0.0780,-0.0229,9.8211,-0.5843,-0.2864,-1.2858,3.6691,3.3251,-9.6146
9144,0.0829,-0.0410,9.8288,-0.4770,-0.2759,-1.2180,3.6640,3.3283,-9.5874
9152,0.0691,-0.0455,9.8135,-0.4518,-0.2606,-1.1292,3.6600,3.3315,-9.5603
9160,0.0726,-0.0355,9.8087,-0.3449,-0.2725,-1.0790,3.6559,3.3388,-9.5297
9168,0.0553,-0.0292,9.7898,-0.3414,-0.2733,-1.0256,3.6498,3.3490,-9.4997
9176,0.0469,-0.0289,9.7840,-0.2768,-0.3301,-0.8572,3.6515,3.3592,-9.4724
9184,0.0402,-0.0109,9.7716,-0.2922,-0.3070,-0.8828,3.6453,3.3626,-9.4375
9192,0.0351,-0.0470,9.7744,-0.2377,-0.2370,-0.9260,3.6391,3.3658,-9.4026
9200,0.0322,-0.0474,9.7792,-0.2682,-0.1993,-0.9300,3.6340,3.3685,-9.3685
9208,0.0333,-0.0190,9.7768,-0.2601,-0.1766,-0.8538,3.6289,3.3711,-9.3344
9216,0.0448,0.0158,9.7573,-0.2870,-0.1869,-0.8076,3.6227,3.3757,-9.3010
9224,0.0579,0.0410,9.7519,-0.2807,-0.1328,-0.7154,3.6165,3.3803,-9.2677
9232,0.0506,0.0314,9.7630,-0.3413,-0.0890,-0.6966,3.6103,3.3847,-9.2345
9240,0.0372,-0.0101,9.7648,-0.3353,-0.1912,-0.6546,3.6092,3.3917,-9.2056
9248,0.0423,-0.0486,9.7801,-0.3776,-0.1422,-0.6784,3.6066,3.3954,-9.1798
9256,0.0365,-0.0533,9.7772,-0.2766,-0.0420,-0.6852,3.6024,3.4058,-9.1516
9264,0.0308,-0.0521,9.7726,-0.3001,0.0325,-0.7210,3.5976,3.4115,-9.1229
9272,0.0453,-0.0638,9.7927,-0.2639,-0.0750,-0.8166,3.5929,3.4171,-9.0944
9280,0.0337,-0.0917,9.7949,-0.2746,-0.0337,-1.0254,3.5902,3.4231,-9.0639
9288,0.0301,-0.0928,9.8037,-0.2929,-0.0743,-1.1477,3.5865,3.4311,-9.0340
9296,0.0300,-0.0983,9.7998,-0.2490,-0.1904,-1.1579,3.5786,3.4379,-9.0063
9304,0.0245,-0.0942,9.7895,-0.2390,-0.2161,-1.1731,3.5743,3.4463,-8.9812
9312,0.0094,-0.0932,9.7902,-0.2348,-0.2754,-1.1076,3.5701,3.4545,-8.9563
9320,-0.0411,-0.1334,9.8108,-0.2361,-0.2307,-1.3196,3.5658,3.4626,-8.9314
9328,-0.0439,-0.1232,9.8213,-0.1627,-0.2386,-1.3944,3.5645,3.4686,-8.9061
9336,-0.0529,-0.1231,9.8322,-0.1512,-0.2436,-1.6018,3.5633,3.4746,-8.8808
9344,-0.0456,-0.1353,9.8192,-0.1908,-0.2376,-1.6722,3.5554,3.4840,-8.8511
9352,-0.0316,-0.1350,9.8180,-0.2127,-0.2346,-1.7449,3.5474,3.4933,-8.8215
9360,-0.0386,-0.1420,9.8155,-0.1857,-0.2717,-1.8384,3.5457,3.5026,-8.7970
9368,-0.0230,-0.1137,9.8137,-0.2372,-0.1445,-1.9785,3.5418,3.5123,-8.7722
9376,-0.0290,-0.1186,9.8112,-0.2144,-0.1589,-2.0431,3.5431,3.5193,-8.7474
9384,-0.0366,-0.1221,9.8257,-0.2433,-0.0980,-2.2462,3.5443,3.5262,-8.7228
9392,-0.0390,-0.1048,9.8216,-0.2575,-0.1224,-2.3684,3.5439,3.5361,-8.6936
9400,-0.0394,-0.0947,9.8165,-0.2952,-0.0764,-2.4640,3.5400,3.5439,-8.6701
9408,-0.0379,-0.0932,9.8296,-0.2699,-0.1044,-2.3473,3.5361,3.5516,-8.6467
9416,-0.0301,-0.0663,9.8360,-0.3070,-0.0592,-2.4011,3.5306,3.5638,-8.6280
9424,-0.0213,-0.0799,9.8236,-0.2998,-0.0240,-2.3113,3.5251,3.5759,-8.6093
9432,-0.0351,-0.0702,9.8256,-0.3010,-0.0063,-2.3933,3.5196,3.5878,-8.5907
9440,-0.0336,-0.0560,9.8374,-0.3687,-0.0268,-2.4398,3.5172,3.5966,-8.5624
9448,-0.0435,-0.0450,9.8386,-0.4148,-0.0303,-2.4282,3.5152,3.6048,-8.5363
9456,-0.0348,-0.0556,9.8432,-0.4643,-0.0550,-2.4491,3.5128,3.6170,-8.5123
9464,-0.0410,-0.0678,9.8488,-0.4182,-0.1000,-2.3172,3.5103,3.6290,-8.4884
9472,-0.0343,-0.0849,9.8425,-0.4809,-0.0950,-2.4150,3.5022,3.6379,-8.4624
9480,-0.0296,-0.0615,9.8431,-0.4528,-0.0848,-2.3458,3.5007,3.6447,-8.4336
9488,-0.0313,-0.0250,9.8196,-0.4525,0.0368,-2.2637,3.4967,3.6539,-8.4083
9496,-0.0256,-0.0292,9.8265,-0.4817,0.0785,-2.0971,3.5007,3.6640,-8.3878
9504,-0.0286,-0.0358,9.8177,-0.5229,0.0837,-1.9752,3.5048,3.6740,-8.3672
9512,-0.0349,-0.0367,9.8180,-0.4876,0.0807,-1.8400,3.5057,3.6829,-8.3473
9520,-0.0416,-0.0326,9.8214,-0.4645,0.0351,-1.6253,3.5066,3.6918,-8.3273
9528,-0.0412,-0.0343,9.8122,-0.5038,-0.0378,-1.5400,3.5033,3.7040,-8.3019
9536,-0.0472,-0.0349,9.7871,-0.5147,-0.0915,-1.5358,3.5001,3.7162,-8.2766
9544,-0.0441,-0.0195,9.7657,-0.4717,-0.0842,-1.4598,3.4968,3.7282,-8.2513
9552,-0.0562,-0.0102,9.7818,-0.4627,-0.0612,-1.4644,3.4961,3.7351,-8.2296
9560,-0.0413,-0.0318,9.7878,-0.4487,-0.1246,-1.3755,3.4968,3.7449,-8.2086
9568,-0.0441,-0.0417,9.7850,-0.4513,-0.1532,-1.3011,3.4960,3.7526,-8.1835
9576,-0.0535,-0.0539,9.7893,-0.4325,-0.2018,-1.1847,3.4952,3.7602,-8.1585
9584,-0.0557,-0.0495,9.8009,-0.4465,-0.2510,-1.1347,3.4923,3.7682,-8.1402
9592,-0.0412,-0.0788,9.7950,-0.4679,-0.2501,-1.1242,3.4903,3.7802,-8.1219
9600,-0.0391,-0.0674,9.7701,-0.4724,-0.2919,-1.0155,3.4884,3.7945,-8.1026
9608,-0.0235,-0.0754,9.7767,-0.4926,-0.3078,-0.9622,3.4864,3.8088,-8.0834
9616,-0.0144,-0.0826,9.7859,-0.4000,-0.2537,-0.9086,3.4844,3.8229,-8.0643
9624,0.0021,-0.0841,9.8001,-0.4181,-0.2020,-0.9293,3.4814,3.8318,-8.0452
9632,-0.0026,-0.0850,9.8094,-0.3261,-0.2912,-0.7758,3.4784,3.8407,-8.0261
9640,0.0077,-0.0880,9.8168,-0.3581,-0.3018,-0.7597,3.4804,3.8534,-8.0036
9648,0.0070,-0.0854,9.8304,-0.3807,-0.2666,-0.6483,3.4823,3.8661,-7.9812
9656,0.0146,-0.0643,9.8440,-0.4183,-0.2783,-0.6164,3.4842,3.8786,-7.9588
9664,0.0260,-0.0552,9.8377,-0.4036,-0.2575,-0.5592,3.4840,3.8865,-7.9420
9672,0.0081,-0.0361,9.8119,-0.3788,-0.2563,-0.6379,3.4844,3.8973,-7.9233
9680,0.0005,-0.0343,9.8054,-0.3952,-0.2978,-0.6118,3.4837,3.9065,-7.9046
9688,-0.0131,-0.0026,9.8128,-0.3815,-0.2362,-0.6428,3.4829,3.9156,-7.8860
9696,-0.0191,0.0043,9.7908,-0.3337,-0.1612,-0.6805,3.4832,3.9236,-7.8684
9704,-0.0191,0.0023,9.7868,-0.2721,-0.0868,-0.6286,3.4829,3.9320,-7.8494
9712,-0.0359,-0.0055,9.7872,-0.2344,-0.0797,-0.5842,3.4805,3.9398,-7.8309
9720,-0.0320,-0.0016,9.7904,-0.2891,-0.1023,-0.5711,3.4782,3.9475,-7.8125
9728,-0.0334,0.0143,9.7896,-0.2454,-0.0945,-0.4839,3.4758,3.9551,-7.7941
9736,-0.0398,0.0040,9.7707,-0.1502,-0.0258,-0.4006,3.4764,3.9631,-7.7738
9744,-0.0419,-0.0267,9.7727,-0.1472,0.0133,-0.4088,3.4770,3.9710,-7.7535
9752,-0.0351,-0.0153,9.7691,-0.0964,0.0080,-0.3208,3.4716,3.9839,-7.7359
9760,-0.0240,-0.0204,9.7480,-0.0558,-0.0797,-0.3805,3.4721,3.9941,-7.7207
9768,-0.0080,0.0136,9.7467,-0.0329,-0.0356,-0.3417,3.4727,4.0042,-7.7056
9776,-0.0213,0.0103,9.7533,-0.0510,0.0386,-0.4885,3.4792,4.0098,-7.6860
9784,-0.0201,-0.0051,9.7565,0.0303,0.0456,-0.6103,3.4776,4.0212,-7.6735
9792,-0.0122,0.0125,9.7776,-0.0200,0.1242,-0.8067,3.4815,4.0291,-7.6555
9800,-0.0129,0.0147,9.7790,0.0200,0.1567,-0.7653,3.4828,4.0398,-7.6400
9808,-0.0002,0.0103,9.7916,0.0075,0.1399,-0.7603,3.4841,4.0505,-7.6246
9816,0.0035,0.0027,9.7907,-0.0257,0.1290,-0.8035,3.4853,4.0610,-7.6041
9824,-0.0123,0.0118,9.7799,0.0118,0.0920,-0.8848,3.4875,4.0725,-7.5838
9832,-0.0138,-0.0215,9.7887,0.0824,0.1553,-0.9146,3.4896,4.0839,-7.5634
9840,-0.0129,-0.0575,9.7904,0.0085,0.1758,-0.8657,3.4917,4.0941,-7.5481
9848,-0.0043,-0.0122,9.7914,-0.0381,0.0141,-0.8376,3.4937,4.1043,-7.5329
9856,0.0089,0.0152,9.8006,-0.0694,-0.0099,-0.9548,3.4957,4.1144,-7.5176
9864,0.0209,0.0062,9.8221,-0.0753,0.0392,-0.9042,3.4942,4.1254,-7.5024
9872,0.0189,0.0459,9.8119,-0.1209,0.1154,-0.9704,3.4976,4.1377,-7.4833
9880,0.0245,0.0481,9.8278,-0.1245,0.0630,-0.9431,3.4985,4.1500,-7.4641
9888,0.0276,0.0219,9.8048,-0.0720,0.0315,-0.8557,3.4993,4.1622,-7.4500
9896,0.0283,-0.0365,9.7990,-0.1284,0.0975,-0.7400,3.4991,4.1747,-7.4354
9904,0.0320,-0.0546,9.8024,-0.1157,0.0058,-0.6321,3.5033,4.1902,-7.4229
9912,0.0326,-0.0893,9.8041,-0.1009,0.0009,-0.5290,3.5030,4.1975,-7.4073
9920,0.0223,-0.0861,9.7916,-0.0148,0.0015,-0.4383,3.5027,4.2048,-7.3918
9928,0.0134,-0.1301,9.7939,-0.0444,-0.0753,-0.3649,3.5023,4.2119,-7.3764
9936,0.0140,-0.1193,9.8023,-0.0167,-0.1007,-0.2361,3.5084,4.2239,-7.3669
9944,0.0091,-0.1291,9.8004,-0.0329,0.0430,-0.1236,3.5144,4.2358,-7.3574
9952,0.0110,-0.1212,9.7982,-0.0350,0.0178,-0.0026,3.5154,4.2451,-7.3419
9960,0.0277,-0.1177,9.7963,-0.1064,0.0256,0.0597,3.5163,4.2543,-7.3265
9968,0.0233,-0.1213,9.7954,-0.0787,-0.0309,0.2979,3.5147,4.2644,-7.3180
9976,0.0280,-0.1123,9.7859,-0.1055,-0.0369,0.4004,3.5151,4.2754,-7.3056
9984,0.0267,-0.1205,9.7997,-0.1258,0.0427,0.5385,3.5164,4.2863,-7.2941
9992,0.0338,-0.1166,9.8117,-0.2092,0.0921,0.7531,3.5152,4.2980,-7.2841
10000,0.0206,-0.1162,9.8230,-0.1823,0.0434,0.8784,3.5140,4.3097,-7.2742
10008,0.0219,-0.0999,9.8114,-0.2313,0.0821,1.1048,3.5177,4.3212,-7.2652
10016,0.0067,-0.0724,9.8205,-0.1794,0.0818,1.3214,3.5164,4.3302,-7.2503
10024,0.0106,-0.0690,9.8123,-0.1191,0.0709,1.3338,3.5165,4.3455,-7.2388
10032,0.0024,-0.0531,9.8081,-0.1469,0.0364,1.2257,3.5166,4.3607,-7.2273
10040,-0.0051,-0.0528,9.8061,-0.1227,-0.0472,1.1623,3.5167,4.3757,-7.2159
10048,0.0141,-0.0585,9.8093,-0.0596,-0.0205,1.0456,3.5158,4.3862,-7.2005
10056,0.0064,-0.0209,9.8185,-0.0872,-0.0483,1.1154,3.5148,4.3966,-7.1851
10064,0.0045,-0.0246,9.8082,-0.2097,-0.0002,1.0969,3.5084,4.4113,-7.1737
10072,0.0028,-0.0243,9.8121,-0.1907,0.0031,1.0818,3.5019,4.4259,-7.1623
10080,0.0039,-0.0728,9.8211,-0.1753,0.0729,0.8407,3.5019,4.4379,-7.1484
10088,-0.0078,-0.0520,9.8061,-0.1392,0.0623,0.7408,3.5024,4.4463,-7.1375
10096,-0.0102,-0.0327,9.8115,-0.1447,0.1002,0.5652,3.5038,4.4625,-7.1257
10104,-0.0119,-0.0558,9.8115,-0.1073,0.0405,0.4481,3.5041,4.4707,-7.1138
10112,-0.0121,-0.0731,9.8105,-0.1302,0.0954,0.3707,3.5045,4.4788,-7.1019
10120,-0.0168,-0.0737,9.8229,-0.0934,0.0838,0.4380,3.5028,4.4903,-7.0906
10128,-0.0106,-0.0796,9.8103,-0.0956,0.0701,0.3850,3.5011,4.5016,-7.0792
10136,-0.0055,-0.0937,9.8222,-0.0017,0.0090,0.4464,3.5014,4.5158,-7.0708
10144,-0.0081,-0.0964,9.8198,-0.0239,0.0626,0.4811,3.5016,4.5299,-7.0624
10152,-0.0068,-0.0939,9.8354,-0.0424,0.0445,0.5569,3.5018,4.5438,-7.0540
10160,-0.0180,-0.0665,9.8412,-0.0121,-0.0288,0.5548,3.5015,4.5557,-7.0451
10168,-0.0130,-0.0613,9.8429,0.0248,0.0451,0.5740,3.5011,4.5674,-7.0363
10176,0.0015,-0.0412,9.8513,0.0015,-0.0096,0.5125,3.4933,4.5756,-7.0308
10184,0.0005,-0.0093,9.8479,-0.0315,0.0741,0.3069,3.4900,4.5837,-7.0253
10192,0.0032,-0.0009,9.8325,0.0116,0.0982,0.1264,3.4867,4.5961,-7.0119
10200,0.0025,-0.0124,9.8305,-0.0218,0.1158,-0.1103,3.4843,4.6045,-7.0025
10208,0.0032,-0.0142,9.8222,-0.0245,0.1381,-0.2699,3.4868,4.6153,-6.9955
10216,0.0157,-0.0099,9.8239,-0.0776,0.1247,-0.4492,3.4849,4.6254,-6.9831
10224,0.0084,0.0081,9.8236,-0.0352,0.1038,-0.6101,3.4829,4.6355,-6.9706
10232,-0.0074,0.0175,9.7996,-0.0479,0.1533,-0.6492,3.4775,4.6479,-6.9592
10240,-0.0080,0.0179,9.8066,-0.0174,0.1792,-0.5719,3.4721,4.6602,-6.9477
10248,-0.0018,0.0529,9.8034,0.0385,0.2573,-0.6660,3.4755,4.6744,-6.9417
10256,-0.0002,0.0376,9.8014,0.0172,0.1347,-0.6174,3.4789,4.6885,-6.9356
10264,-0.0065,-0.0009,9.7827,-0.0378,0.1641,-0.6882,3.4822,4.7024,-6.9296
10272,-0.0081,0.0245,9.7704,-0.0424,0.1442,-0.7505,3.4806,4.7138,-6.9200
10280,-0.0214,0.0447,9.7706,-0.0041,0.1386,-0.8422,3.4804,4.7285,-6.9105
10288,-0.0202,0.0493,9.7649,-0.0315,0.1518,-0.9645,3.4778,4.7382,-6.9058
10296,-0.0324,0.0166,9.7811,0.0302,0.2445,-0.9694,3.4757,4.7522,-6.8977
10304,-0.0206,0.0289,9.7789,0.0493,0.1464,-1.0595,3.4735,4.7661,-6.8896
10312,-0.0195,0.0537,9.7770,0.0276,0.1433,-1.2363,3.4738,4.7760,-6.8814
10320,-0.0281,0.0984,9.7715,0.0068,0.0763,-1.3893,3.4720,4.7853,-6.8777
10328,-0.0208,0.0852,9.7744,0.0296,0.0790,-1.6077,3.4728,4.7994,-6.8665
10336,-0.0210,0.0777,9.7678,0.0007,0.0655,-1.6672,3.4754,4.8090,-6.8583
10344,-0.0217,0.0697,9.7601,0.0371,0.0792,-1.8601,3.4780,4.8185,-6.8501
10352,-0.0269,0.0655,9.7731,0.0239,0.1644,-1.9325,3.4806,4.8278,-6.8419
10360,-0.0293,0.0513,9.7644,-0.0181,0.0565,-2.0258,3.4837,4.8391,-6.8331
10368,-0.0110,0.0485,9.7839,-0.0102,0.0573,-2.1310,3.4867,4.8503,-6.8243
10376,-0.0108,0.0295,9.7915,0.0213,0.0661,-2.0236,3.4858,4.8623,-6.8175
10384,-0.0234,-0.0027,9.8002,-0.0232,0.1679,-1.9849,3.4848,4.8743,-6.8107
10392,-0.0330,-0.0332,9.8153,-0.0151,0.1078,-2.0172,3.4970,4.8871,-6.8048
10400,-0.0311,-0.0203,9.8190,-0.0954,0.1997,-2.2695,3.5008,4.9013,-6.8013
10408,-0.0290,-0.0209,9.8196,-0.0868,0.1970,-2.4067,3.5065,4.9100,-6.8003
10416,-0.0303,0.0132,9.8119,-0.0839,0.1917,-2.4072,3.5121,4.9186,-6.7992
10424,-0.0351,0.0021,9.8146,-0.1665,0.1626,-2.4264,3.5191,4.9360,-6.7921
10432,-0.0368,0.0149,9.8051,-0.2135,0.1748,-2.7541,3.5255,4.9487,-6.7880
10440,-0.0446,0.0055,9.8057,-0.2557,0.1438,-2.7474,3.5318,4.9614,-6.7838
10448,-0.0339,-0.0681,9.7980,-0.2721,0.1834,-2.9224,3.5342,4.9730,-6.7796
10456,-0.0402,-0.0847,9.7755,-0.2851,0.1840,-2.9484,3.5365,4.9844,-6.7754
10464,-0.0363,-0.1033,9.7821,-0.2896,0.1473,-3.1066,3.5387,4.9958,-6.7711
10472,-0.0433,-0.1106,9.7871,-0.2778,0.1281,-3.1432,3.5433,5.0080,-6.7692
10480,-0.0401,-0.0889,9.7771,-0.3573,0.0965,-3.1995,3.5478,5.0201,-6.7658
10488,-0.0344,-0.0652,9.7575,-0.3826,0.1783,-3.1867,3.5508,5.0340,-6.7619
10496,-0.0461,-0.0574,9.7535,-0.2814,0.1151,-3.0252,3.5537,5.0479,-6.7579
10504,-0.0480,-0.0663,9.7804,-0.2834,0.0894,-2.9960,3.5576,5.0543,-6.7573
10512,-0.0612,-0.0648,9.8001,-0.2879,0.0807,-2.9014,3.5658,5.0713,-6.7576
10520,-0.0717,-0.0789,9.7843,-0.3242,0.0725,-2.8057,3.5729,5.0838,-6.7594
10528,-0.0671,-0.0799,9.7900,-0.3403,0.0700,-2.6474,3.5809,5.0952,-6.7605
10536,-0.0753,-0.0766,9.7939,-0.2597,0.0649,-2.6081,3.5889,5.1065,-6.7616
10544,-0.0708,-0.1260,9.8078,-0.2759,0.0440,-2.4719,3.5924,5.1221,-6.7587
10552,-0.0772,-0.1111,9.8076,-0.1848,0.0614,-2.4856,3.5958,5.1376,-6.7558
10560,-0.0653,-0.1144,9.8130,-0.1643,0.0513,-2.4587,3.6025,5.1520,-6.7504
10568,-0.0545,-0.0929,9.8119,-0.2060,-0.0756,-2.4943,3.6092,5.1663,-6.7449
10576,-0.0565,-0.0820,9.8118,-0.1766,-0.0823,-2.4350,3.6159,5.1804,-6.7394
10584,-0.0447,-0.0977,9.8153,-0.1378,-0.0808,-2.3916,3.6239,5.1920,-6.7339
10592,-0.0381,-0.0909,9.7976,-0.1593,-0.0339,-2.1608,3.6280,5.2045,-6.7351
10600,-0.0331,-0.0757,9.7861,-0.1453,0.0108,-1.9721,3.6329,5.2163,-6.7309
10608,-0.0208,-0.0992,9.7940,-0.1532,0.0137,-1.9277,3.6378,5.2281,-6.7266
10616,-0.0065,-0.0978,9.7942,-0.2061,0.0190,-1.8105,3.6480,5.2442,-6.7292
10624,-0.0272,-0.0892,9.7744,-0.1660,0.0695,-1.7598,3.6542,5.2586,-6.7233
10632,-0.0455,-0.0737,9.7751,-0.0503,0.0671,-1.5886,3.6599,5.2749,-6.7253
10640,-0.0411,-0.0833,9.7986,-0.0944,0.1261,-1.3876,3.6655,5.2911,-6.7271
10648,-0.0477,-0.1098,9.7879,-0.0938,0.1559,-1.2674,3.6711,5.3071,-6.7289
10656,-0.0490,-0.1173,9.7897,-0.0613,0.2190,-1.2484,3.6765,5.3245,-6.7325
10664,-0.0543,-0.1237,9.7899,-0.0462,0.2448,-1.1396,3.6820,5.3418,-6.7361
10672,-0.0564,-0.1263,9.8028,-0.0691,0.1520,-1.1369,3.6888,5.3565,-6.7410
10680,-0.0542,-0.1200,9.8168,0.0023,0.1780,-1.0570,3.6946,5.3716,-6.7429
10688,-0.0348,-0.1184,9.8153,-0.0040,0.1709,-1.0419,3.7003,5.3865,-6.7448
10696,-0.0224,-0.1274,9.7994,-0.0474,0.0787,-0.9688,3.7069,5.4008,-6.7446
10704,-0.0197,-0.1515,9.8033,-0.1236,-0.0068,-0.7949,3.7086,5.4175,-6.7443
10712,-0.0146,-0.1624,9.7794,-0.1005,-0.0699,-0.6499,3.7156,5.4282,-6.7494
10720,-0.0177,-0.1499,9.7774,-0.1210,0.0165,-0.7140,3.7226,5.4388,-6.7543
10728,-0.0228,-0.1596,9.7751,-0.1966,0.0084,-0.5619,3.7314,5.4527,-6.7586
10736,-0.0347,-0.1679,9.7835,-0.2023,0.0167,-0.4671,3.7363,5.4698,-6.7614
10744,-0.0473,-0.1859,9.7902,-0.1597,-0.0581,-0.4485,3.7425,5.4859,-6.7622
10752,-0.0405,-0.1912,9.7840,-0.1296,-0.1003,-0.3907,3.7488,5.5019,-6.7629
10760,-0.0307,-0.1901,9.7857,-0.1515,-0.0712,-0.3301,3.7549,5.5177,-6.7636
10768,-0.0268,-0.1673,9.7853,-0.2045,-0.1368,-0.2507,3.7625,5.5324,-6.7656
10776,-0.0379,-0.1712,9.7764,-0.2205,-0.2102,-0.2522,3.7700,5.5471,-6.7675
10784,-0.0397,-0.1597,9.7788,-0.2171,-0.1870,-0.0937,3.7774,5.5606,-6.7708
10792,-0.0418,-0.1548,9.7832,-0.2592,-0.1782,-0.0780,3.7814,5.5750,-6.7726
10800,-0.0419,-0.1535,9.7726,-0.2114,-0.2098,-0.0871,3.7853,5.5893,-6.7743
10808,-0.0506,-0.1300,9.7913,-0.2058,-0.1253,-0.1491,3.7921,5.6044,-6.7789
10816,-0.0444,-0.0974,9.8073,-0.1604,-0.1806,-0.2510,3.7983,5.6224,-6.7804
10824,-0.0364,-0.0911,9.7985,-0.1943,-0.1160,-0.3192,3.8064,5.6397,-6.7863
10832,-0.0461,-0.1000,9.7956,-0.1520,-0.0917,-0.3470,3.8111,5.6535,-6.7891
10840,-0.0531,-0.0971,9.7939,-0.1863,0.0223,-0.3176,3.8157,5.6671,-6.7919
10848,-0.0566,-0.0913,9.7987,-0.2004,0.0540,-0.3669,3.8203,5.6807,-6.7945
10856,-0.0576,-0.0861,9.7935,-0.1766,0.1349,-0.4086,3.8258,5.6961,-6.7986
10864,-0.0539,-0.0818,9.7956,-0.1911,0.0790,-0.3366,3.8312,5.7113,-6.8026
10872,-0.0410,-0.0929,9.7880,-0.2183,0.1242,-0.2543,3.8395,5.7260,-6.8059
10880,-0.0366,-0.0770,9.7933,-0.2417,0.1114,-0.1356,3.8478,5.7405,-6.8093
10888,-0.0349,-0.0613,9.7804,-0.2667,0.1551,-0.1342,3.8530,5.7554,-6.8168
10896,-0.0315,-0.0552,9.7765,-0.2746,0.2450,0.1339,3.8592,5.7692,-6.8204
10904,-0.0430,-0.0643,9.7689,-0.2982,0.3015,0.1316,3.8644,5.7863,-6.8230
10912,-0.0439,-0.0361,9.7601,-0.3074,0.3717,0.1427,3.8627,5.8033,-6.8254
10920,-0.0324,-0.0380,9.7572,-0.3322,0.2627,0.2040,3.8610,5.8197,-6.8283
10928,-0.0402,-0.0310,9.7619,-0.3453,0.2012,0.1933,3.8685,5.8379,-6.8340
10936,-0.0286,-0.0383,9.7752,-0.2991,0.1903,0.1857,3.8764,5.8477,-6.8318
10944,-0.0235,-0.0085,9.7809,-0.2523,0.2013,0.1011,3.8877,5.8588,-6.8378
10952,-0.0067,-0.0197,9.7883,-0.2822,0.1185,0.1029,3.8988,5.8699,-6.8437
10960,-0.0078,-0.0117,9.7745,-0.3054,0.1833,0.0326,3.9099,5.8808,-6.8495
10968,-0.0148,-0.0022,9.7812,-0.2930,0.1999,0.0747,3.9155,5.8946,-6.8571
10976,-0.0174,0.0014,9.7867,-0.3344,0.2558,0.0243,3.9211,5.9082,-6.8646
10984,-0.0166,0.0279,9.7981,-0.2994,0.2906,0.1014,3.9267,5.9208,-6.8672
10992,-0.0104,0.0195,9.8067,-0.2445,0.3051,0.0019,3.9322,5.9332,-6.8698
11000,-0.0098,0.0184,9.8139,-0.2854,0.2444,0.0107,3.9405,5.9436,-6.8751
11008,-0.0111,0.0391,9.8050,-0.2952,0.1704,-0.0423,3.9463,5.9587,-6.8794
11016,-0.0109,0.0625,9.7910,-0.3659,0.1929,-0.0449,3.9496,5.9752,-6.8802
11024,-0.0089,0.0572,9.7760,-0.4041,0.1158,-0.1541,3.9577,5.9891,-6.8843
11032,-0.0026,0.0442,9.7734,-0.4380,0.0900,-0.2318,3.9658,6.0030,-6.8883
11040,-0.0118,0.0070,9.7825,-0.4598,0.0840,-0.3221,3.9738,6.0201,-6.8888
11048,-0.0093,-0.0053,9.7961,-0.4753,0.0543,-0.3498,3.9817,6.0370,-6.8893
11056,-0.0097,-0.0009,9.8062,-0.4981,0.0419,-0.3203,3.9925,6.0495,-6.8975
11064,0.0149,0.0035,9.7879,-0.4372,0.0274,-0.3588,4.0031,6.0619,-6.9055
11072,0.0208,-0.0053,9.7997,-0.5123,0.0161,-0.2249,4.0137,6.0742,-6.9134
11080,0.0153,-0.0105,9.7908,-0.5629,-0.0026,-0.3528,4.0189,6.0883,-6.9217
11088,0.0275,-0.0029,9.7977,-0.5312,-0.0365,-0.4432,4.0241,6.1023,-6.9299
11096,0.0140,-0.0129,9.8026,-0.5515,0.0004,-0.5323,4.0330,6.1187,-6.9332
11104,0.0205,-0.0297,9.7943,-0.5843,-0.0257,-0.4441,4.0419,6.1349,-6.9364
11112,0.0227,-0.0271,9.7945,-0.5490,-0.0533,-0.3998,4.0521,6.1466,-6.9400
11120,0.0260,-0.0266,9.7933,-0.5313,-0.0316,-0.1895,4.0536,6.1626,-6.9464
11128,0.0332,-0.0453,9.8041,-0.5569,-0.1016,-0.1270,4.0609,6.1761,-6.9517
11136,0.0410,-0.0435,9.7856,-0.5415,-0.1872,-0.1606,4.0724,6.1865,-6.9599
11144,0.0367,-0.0168,9.7817,-0.4868,-0.1171,-0.1474,4.0838,6.1969,-6.9679
11152,0.0219,-0.0492,9.7872,-0.4291,-0.1460,0.0093,4.0875,6.2091,-6.9729
11160,0.0239,-0.0593,9.7726,-0.3179,-0.1336,0.2124,4.0910,6.2212,-6.9779
11168,0.0158,-0.1004,9.7940,-0.3636,-0.1591,0.5160,4.0965,6.2323,-6.9847
11176,0.0057,-0.0988,9.7829,-0.3352,-0.1222,0.6250,4.1019,6.2433,-6.9914
11184,0.0161,-0.1256,9.7906,-0.2655,-0.1296,0.6918,4.1072,6.2541,-6.9980
11192,0.0069,-0.1276,9.7925,-0.2655,-0.1766,0.7904,4.1134,6.2673,-7.0031
11200,0.0054,-0.1244,9.8006,-0.2015,-0.0909,0.9034,4.1172,6.2819,-7.0057
11208,0.0076,-0.0863,9.8016,-0.1909,-0.0516,1.0034,4.1262,6.2958,-7.0135
11216,-0.0072,-0.0510,9.7902,-0.2635,-0.0168,1.0271,4.1336,6.3097,-7.0212
11224,-0.0014,-0.0455,9.8022,-0.2529,-0.0287,0.9110,4.1411,6.3201,-7.0283
11232,-0.0044,-0.1025,9.7948,-0.2534,-0.0668,0.7841,4.1465,6.3362,-7.0334
11240,-0.0103,-0.0811,9.7932,-0.2299,-0.0953,0.6520,4.1547,6.3541,-7.0428
11248,-0.0134,-0.1151,9.8022,-0.2234,-0.1651,0.6217,4.1639,6.3694,-7.0506
11256,-0.0317,-0.0894,9.8039,-0.1399,-0.2160,0.6754,4.1730,6.3846,-7.0583
11264,-0.0427,-0.0770,9.7873,-0.1801,-0.2539,0.6467,4.1762,6.4007,-7.0649
11272,-0.0391,-0.0631,9.7882,-0.1944,-0.1301,0.7846,4.1794,6.4167,-7.0715
11280,-0.0367,-0.0701,9.7908,-0.2055,-0.1318,0.8392,4.1869,6.4296,-7.0818
11288,-0.0404,-0.0459,9.7991,-0.1414,-0.1308,0.8940,4.1943,6.4425,-7.0919
11296,-0.0543,-0.0718,9.7866,-0.1255,-0.1484,0.8611,4.2016,6.4552,-7.1020
11304,-0.0281,-0.0693,9.7880,-0.1503,-0.1653,0.9790,4.2060,6.4684,-7.1115
11312,-0.0240,-0.0635,9.7883,-0.1846,-0.0801,1.0357,4.2113,6.4814,-7.1199
11320,-0.0290,-0.0645,9.7923,-0.2068,-0.0520,1.0659,4.2170,6.4962,-7.1277
11328,-0.0139,-0.0622,9.7895,-0.2253,-0.1584,1.1002,4.2280,6.5090,-7.1383
11336,-0.0102,-0.0816,9.7820,-0.2751,-0.2122,1.2236,4.2389,6.5217,-7.1488
11344,-0.0065,-0.0595,9.7961,-0.2746,-0.1436,1.2403,4.2468,6.5363,-7.1606
11352,0.0088,-0.0778,9.7780,-0.3275,-0.0353,1.2483,4.2561,6.5531,-7.1713
11360,0.0198,-0.1216,9.7929,-0.3621,-0.0758,1.4292,4.2654,6.5698,-7.1819
11368,0.0248,-0.0848,9.7951,-0.3286,-0.1865,1.5142,4.2678,6.5868,-7.1919
11376,0.0257,-0.0724,9.7861,-0.2538,-0.1591,1.6035,4.2702,6.6038,-7.2018
11384,0.0064,-0.0635,9.7908,-0.3503,-0.1515,1.6196,4.2725,6.6206,-7.2116
11392,0.0118,-0.0823,9.8000,-0.3465,-0.2349,1.7577,4.2825,6.6345,-7.2203
11400,0.0062,-0.1071,9.7897,-0.3403,-0.1920,1.6177,4.2891,6.6520,-7.2327
11408,0.0070,-0.0625,9.7730,-0.3503,-0.1003,1.5718,4.2917,6.6680,-7.2426
11416,-0.0032,-0.0787,9.7812,-0.2773,-0.0313,1.5172,4.2943,6.6839,-7.2524
11424,-0.0092,-0.0701,9.7913,-0.2821,-0.0080,1.5078,4.3041,6.6973,-7.2654
11432,-0.0297,-0.0527,9.7941,-0.2973,0.0170,1.4427,4.3104,6.7082,-7.2807
11440,-0.0373,-0.0566,9.7907,-0.2666,0.0942,1.4045,4.3138,6.7180,-7.2953
11448,-0.0410,-0.0123,9.7739,-0.2692,0.0028,1.2826,4.3172,6.7277,-7.3098
11456,-0.0421,-0.0100,9.7811,-0.2183,0.0753,1.0807,4.3233,6.7431,-7.3199
11464,-0.0494,-0.0252,9.8026,-0.3270,-0.0314,0.8103,4.3328,6.7559,-7.3322
11472,-0.0374,-0.0208,9.8089,-0.3110,-0.0801,0.6344,4.3423,6.7687,-7.3443
11480,-0.0369,0.0165,9.7981,-0.3170,-0.0653,0.3275,4.3507,6.7790,-7.3602
11488,-0.0311,0.0074,9.7893,-0.3173,0.0049,0.1434,4.3590,6.7892,-7.3759
11496,-0.0463,0.0060,9.8032,-0.2431,-0.0427,-0.0780,4.3673,6.7992,-7.3915
11504,-0.0291,-0.0044,9.8022,-0.1533,-0.0055,-0.2524,4.3736,6.8160,-7.4050
11512,-0.0327,-0.0051,9.7980,-0.1076,-0.0180,-0.3791,4.3842,6.8292,-7.4155
11520,-0.0281,-0.0154,9.8010,-0.0984,-0.1766,-0.3030,4.3923,6.8438,-7.4267
11528,-0.0263,0.0018,9.8029,-0.1004,-0.1735,-0.3982,4.4003,6.8583,-7.4379
11536,-0.0288,-0.0105,9.7987,-0.0969,-0.1573,-0.4253,4.4073,6.8722,-7.4509
11544,-0.0328,0.0404,9.7953,-0.0536,-0.1631,-0.4165,4.4162,6.8850,-7.4632
11552,-0.0306,0.0504,9.8045,-0.0442,-0.1127,-0.4294,4.4245,6.8987,-7.4792
11560,-0.0167,0.0445,9.7987,-0.0618,-0.0618,-0.3937,4.4327,6.9123,-7.4951
11568,-0.0082,0.0742,9.7826,-0.0307,-0.0345,-0.3436,4.4409,6.9258,-7.5109
11576,-0.0101,0.0814,9.7817,-0.0063,-0.2457,-0.2984,4.4472,6.9382,-7.5260
11584,-0.0041,0.0575,9.7790,-0.0096,-0.2423,-0.4312,4.4533,6.9506,-7.5409
11592,-0.0146,0.0864,9.7852,-0.0634,-0.3244,-0.3874,4.4623,6.9671,-7.5538
11600,-0.0136,0.0657,9.7863,-0.0749,-0.2989,-0.4843,4.4713,6.9836,-7.5666
11608,-0.0100,0.0797,9.7750,-0.0006,-0.2719,-0.5156,4.4801,6.9999,-7.5792
11616,-0.0313,0.0641,9.7570,-0.0228,-0.2140,-0.5828,4.4899,7.0147,-7.5946
11624,-0.0429,0.0546,9.7612,0.0333,-0.2307,-0.5858,4.4996,7.0280,-7.6112
11632,-0.0437,0.0510,9.7637,0.0016,-0.1853,-0.8286,4.5078,7.0435,-7.6230
11640,-0.0423,0.0527,9.7677,0.0299,-0.1979,-0.9569,4.5159,7.0590,-7.6345
11648,-0.0464,0.0534,9.7746,0.0517,-0.1780,-0.9701,4.5240,7.0743,-7.6517
11656,-0.0410,0.0253,9.7817,0.0432,-0.2069,-0.8522,4.5315,7.0900,-7.6697
11664,-0.0220,0.0085,9.7690,-0.0343,-0.2399,-0.7367,4.5371,7.1013,-7.6889
11672,-0.0194,-0.0258,9.7620,-0.0470,-0.3061,-0.8103,4.5426,7.1125,-7.7080
11680,-0.0048,-0.0514,9.7722,-0.1366,-0.3107,-0.7900,4.5481,7.1237,-7.7269
11688,-0.0075,-0.0622,9.7635,-0.1902,-0.1712,-0.9119,4.5602,7.1381,-7.7475
11696,0.0056,-0.0515,9.7717,-0.2255,-0.2270,-0.8871,4.5723,7.1524,-7.7680
11704,0.0005,-0.0633,9.7659,-0.2725,-0.1898,-0.8555,4.5847,7.1646,-7.7863
11712,-0.0081,-0.0798,9.7702,-0.2002,-0.2556,-0.7372,4.5961,7.1783,-7.8035
11720,-0.0032,-0.1112,9.7722,-0.1470,-0.2011,-0.6881,4.6074,7.1918,-7.8206
11728,0.0218,-0.1063,9.7832,-0.1068,-0.1517,-0.6465,4.6186,7.2038,-7.8336
11736,0.0216,-0.0837,9.7772,-0.2044,-0.1177,-0.4840,4.6283,7.2172,-7.8527
11744,0.0218,-0.0691,9.7868,-0.1537,-0.0933,-0.4140,4.6375,7.2319,-7.8698
11752,0.0184,-0.0173,9.7973,-0.1746,-0.0112,-0.5123,4.6466,7.2465,-7.8866
11760,0.0154,-0.0427,9.7954,-0.1972,-0.0661,-0.4757,4.6560,7.2595,-7.9038
11768,0.0176,-0.0289,9.8105,-0.2695,-0.0946,-0.3954,4.6655,7.2725,-7.9208
11776,0.0214,0.0242,9.8101,-0.3040,-0.0152,-0.3479,4.6786,7.2878,-7.9377
11784,0.0304,0.0166,9.8093,-0.2436,-0.0059,-0.3451,4.6917,7.3030,-7.9543
11792,0.0207,-0.0107,9.8031,-0.2845,-0.0130,-0.3612,4.7047,7.3181,-7.9709
11800,0.0051,-0.0104,9.8097,-0.2357,0.0789,-0.2965,4.7128,7.3355,-7.9906
11808,0.0133,-0.0475,9.8012,-0.1996,-0.0359,-0.4053,4.7208,7.3527,-8.0101
11816,0.0098,-0.0172,9.8122,-0.1891,-0.1670,-0.3467,4.7321,7.3684,-8.0295
11824,-0.0102,-0.0240,9.7993,-0.2031,-0.1911,-0.3414,4.7376,7.3854,-8.0511
11832,-0.0155,-0.0156,9.7963,-0.1472,-0.2461,-0.2189,4.7430,7.4024,-8.0725
11840,-0.0035,-0.0116,9.8082,-0.1923,-0.2801,-0.1258,4.7522,7.4125,-8.0932
11848,-0.0114,0.0079,9.7934,-0.2195,-0.2965,-0.1488,4.7613,7.4258,-8.1090
11856,0.0007,0.0215,9.7823,-0.1521,-0.3896,-0.0987,4.7704,7.4391,-8.1270
11864,0.0048,0.0274,9.7759,-0.1011,-0.4359,0.0131,4.7817,7.4537,-8.1438
11872,0.0262,0.0309,9.7765,-0.1056,-0.3842,0.0828,4.7930,7.4682,-8.1605
11880,0.0320,0.0018,9.7971,-0.1019,-0.4974,0.1973,4.8042,7.4826,-8.1771
11888,0.0254,-0.0027,9.7966,-0.0850,-0.4191,0.1389,4.8149,7.4926,-8.1996
11896,0.0212,-0.0054,9.7934,-0.0902,-0.3548,0.2430,4.8254,7.5025,-8.2220
11904,0.0219,0.0149,9.7965,-0.0125,-0.4586,0.1879,4.8354,7.5214,-8.2437
11912,0.0144,0.0606,9.7947,0.0244,-0.4566,0.2526,4.8454,7.5401,-8.2653
11920,0.0213,0.0696,9.7976,0.0731,-0.4707,0.2611,4.8600,7.5540,-8.2866
11928,0.0248,0.0878,9.8048,0.0450,-0.4894,0.2585,4.8702,7.5706,-8.3058
11936,0.0261,0.0510,9.8304,0.1114,-0.4807,0.3841,4.8852,7.5861,-8.3287
11944,0.0205,0.0363,9.8327,0.0683,-0.4911,0.5388,4.8957,7.6015,-8.3514
11952,0.0017,0.0376,9.8251,0.1071,-0.4236,0.5268,4.9061,7.6173,-8.3729
11960,-0.0016,0.1017,9.8056,0.0588,-0.4151,0.5393,4.9150,7.6311,-8.3928
11968,-0.0027,0.0940,9.8024,0.1033,-0.4310,0.4179,4.9267,7.6428,-8.4130
11976,0.0099,0.0552,9.8128,0.0312,-0.4649,0.5605,4.9387,7.6516,-8.4393
11984,-0.0079,0.0543,9.7981,0.0396,-0.4039,0.7022,4.9507,7.6603,-8.4653
11992,0.0061,0.0557,9.7820,0.0449,-0.3376,0.7284,4.9626,7.6688,-8.4910
12000,0.0115,0.0666,9.7989,0.0847,-0.4076,0.6920,4.9749,7.6802,-8.5137
12008,0.0041,0.1019,9.7923,-0.0186,-0.3891,0.6360,4.9871,7.6915,-8.5362
12016,0.0019,0.0678,9.7904,-0.0507,-0.3448,0.7210,5.0030,7.7003,-8.5623
12024,-0.0009,0.0693,9.8037,-0.1454,-0.2997,0.8957,5.0188,7.7090,-8.5882
12032,-0.0003,0.0634,9.8058,-0.1479,-0.2753,0.9987,5.0311,7.7243,-8.6167
12040,-0.0044,0.0116,9.8113,-0.2144,-0.1933,0.9079,5.0458,7.7385,-8.6378
12048,0.0007,-0.0280,9.8327,-0.1979,-0.1256,0.8611,5.0550,7.7469,-8.6616
12056,-0.0258,-0.0151,9.8297,-0.2222,-0.1275,0.8456,5.0671,7.7634,-8.6837
12064,-0.0274,0.0166,9.8252,-0.2587,-0.2039,0.8415,5.0790,7.7797,-8.7056
12072,-0.0284,0.0389,9.8106,-0.2590,-0.1784,0.7896,5.0923,7.7960,-8.7340
12080,-0.0197,0.0336,9.8152,-0.2486,-0.0713,0.8519,5.1055,7.8121,-8.7622
12088,0.0036,0.0060,9.8130,-0.2280,-0.0409,0.8875,5.1181,7.8224,-8.7848
12096,0.0001,-0.0349,9.8114,-0.2216,-0.0784,0.9269,5.1306,7.8326,-8.8073
12104,-0.0016,-0.0323,9.7973,-0.1942,-0.0877,1.1006,5.1431,7.8427,-8.8295
12112,-0.0037,-0.0067,9.7790,-0.1813,-0.0166,1.1280,5.1482,7.8542,-8.8596
12120,-0.0001,-0.0108,9.7848,-0.1636,-0.0285,1.1542,5.1595,7.8660,-8.8914
12128,-0.0023,-0.0014,9.7877,-0.2160,-0.0907,1.1153,5.1703,7.8835,-8.9234
12136,0.0016,0.0199,9.7927,-0.1862,-0.0914,1.0487,5.1809,7.9009,-8.9551
12144,0.0060,0.0091,9.8017,-0.2616,-0.0974,0.9584,5.1929,7.9214,-8.9833
12152,0.0028,0.0522,9.7757,-0.3151,-0.1645,0.9520,5.2020,7.9366,-9.0116
12160,0.0053,0.0256,9.7809,-0.2862,-0.1327,0.8766,5.2119,7.9493,-9.0431
12168,0.0076,0.0142,9.7628,-0.2053,-0.0516,0.7724,5.2251,7.9605,-9.0743
12176,0.0023,0.0290,9.7692,-0.1999,-0.0221,0.6435,5.2382,7.9715,-9.1052
12184,-0.0115,0.0452,9.7631,-0.1707,-0.0498,0.5976,5.2507,7.9929,-9.1369
12192,-0.0140,-0.0017,9.7786,-0.2122,-0.0230,0.5216,5.2631,8.0142,-9.1682
12200,-0.0163,0.0014,9.7630,-0.1398,-0.0587,0.5210,5.2731,8.0282,-9.1970
12208,-0.0279,-0.0104,9.7726,-0.0920,-0.0662,0.3925,5.2830,8.0420,-9.2255
12216,-0.0393,-0.0333,9.7799,-0.0702,-0.1106,0.3762,5.2927,8.0558,-9.2537
12224,-0.0401,-0.0536,9.7869,-0.0894,-0.1292,0.2246,5.3091,8.0684,-9.2808
12232,-0.0467,-0.0465,9.7865,-0.1077,-0.0482,0.2796,5.3235,8.0795,-9.3086
12240,-0.0340,-0.0423,9.7729,-0.0533,-0.0561,0.3723,5.3354,8.0929,-9.3404
12248,-0.0412,-0.0622,9.7833,-0.0412,-0.1144,0.4529,5.3476,8.1062,-9.3720
12256,-0.0422,-0.0925,9.7892,-0.0270,-0.1701,0.5139,5.3598,8.1198,-9.4028
12264,-0.0468,-0.0639,9.7817,-0.1307,-0.1380,0.4016,5.3718,8.1334,-9.4325
12272,-0.0396,-0.0731,9.7886,-0.0993,-0.3180,0.3290,5.3838,8.1506,-9.4652
12280,-0.0349,-0.0997,9.8012,-0.0878,-0.3355,0.3074,5.3957,8.1677,-9.4977
12288,-0.0283,-0.0872,9.7821,-0.0929,-0.3095,0.3322,5.4074,8.1847,-9.5299
12296,-0.0196,-0.0778,9.7802,-0.2071,-0.3353,0.2812,5.4177,8.1982,-9.5589
12304,-0.0237,-0.0474,9.7850,-0.1936,-0.3120,0.4111,5.4278,8.2116,-9.5878
12312,-0.0173,-0.0495,9.7720,-0.1888,-0.3564,0.4207,5.4413,8.2202,-9.6221
12320,-0.0251,-0.0469,9.7816,-0.2507,-0.3402,0.5045,5.4546,8.2286,-9.6561
12328,-0.0209,-0.0682,9.7953,-0.2007,-0.2847,0.5019,5.4678,8.2370,-9.6898
12336,-0.0207,-0.0606,9.8018,-0.2142,-0.3463,0.5315,5.4800,8.2476,-9.7166
12344,-0.0309,-0.0701,9.8091,-0.1657,-0.3465,0.3785,5.4925,8.2586,-9.7446
12352,-0.0243,-0.0782,9.7929,-0.1621,-0.2587,0.3361,5.5054,8.2705,-9.7791
12360,-0.0083,-0.0578,9.7909,-0.1879,-0.1988,0.1116,5.5159,8.2799,-9.8060
12368,-0.0188,-0.0585,9.7969,-0.1966,-0.2694,0.0810,5.5263,8.2892,-9.8328
12376,-0.0193,-0.0641,9.7837,-0.1996,-0.3104,0.0596,5.5385,8.2999,-9.8621
12384,-0.0055,-0.0546,9.7868,-0.2238,-0.2428,-0.0328,5.5511,8.3099,-9.8941
12392,-0.0209,-0.0656,9.7986,-0.2176,-0.2822,0.0255,5.5636,8.3199,-9.9258
12400,-0.0075,-0.0464,9.7861,-0.1850,-0.2906,0.0093,5.5741,8.3270,-9.9544
12408,-0.0058,-0.0472,9.8131,-0.1405,-0.3439,0.0924,5.5845,8.3339,-9.9827
12416,-0.0098,-0.0822,9.8124,-0.1166,-0.3682,0.0012,5.5948,8.3408,-10.0108
12424,-0.0120,-0.0518,9.8091,-0.1258,-0.3728,0.1087,5.6070,8.3504,-10.0382
12432,0.0106,-0.0827,9.8211,-0.0758,-0.4092,0.0595,5.6172,8.3619,-10.0673
12440,0.0220,-0.0308,9.8261,-0.0654,-0.3747,0.1271,5.6311,8.3685,-10.0961
12448,0.0272,-0.0108,9.8265,-0.1328,-0.2937,0.1037,5.6449,8.3750,-10.1246
12456,0.0392,-0.0292,9.8264,-0.1919,-0.2189,0.1294,5.6619,8.3815,-10.1539
12464,0.0205,-0.0216,9.8290,-0.2165,-0.2780,0.0633,5.6774,8.3907,-10.1787
12472,0.0031,-0.0335,9.8241,-0.2453,-0.4732,-0.0453,5.6919,8.3994,-10.2085
12480,-0.0067,-0.0501,9.8379,-0.1235,-0.3959,-0.0931,5.7062,8.4080,-10.2380
12488,-0.0219,-0.0921,9.8285,-0.1190,-0.2713,0.0478,5.7123,8.4189,-10.2688
12496,-0.0276,-0.0804,9.8291,0.0160,-0.3148,0.1266,5.7284,8.4269,-10.2988
12504,0.0034,-0.0338,9.8278,0.0224,-0.2497,0.1379,5.7443,8.4347,-10.3286
12512,0.0154,-0.0449,9.8349,-0.0409,-0.2115,0.1301,5.7520,8.4426,-10.3615
12520,0.0012,-0.0400,9.8139,0.0213,-0.1936,0.1653,5.7597,8.4503,-10.3941
12528,-0.0029,-0.0465,9.8218,0.0755,-0.0725,0.2096,5.7673,8.4579,-10.4265
12536,-0.0067,-0.0409,9.7958,0.0579,-0.0474,0.2733,5.7838,8.4641,-10.4552
12544,-0.0211,-0.0550,9.7813,0.0091,-0.0927,0.1716,5.8012,8.4768,-10.4909
12552,-0.0190,-0.0368,9.7777,0.0291,-0.0667,0.1436,5.8175,8.4866,-10.5249
12560,-0.0190,-0.0500,9.7740,-0.0584,-0.0098,-0.0058,5.8337,8.4964,-10.5586
12568,-0.0390,-0.0332,9.7721,0.0446,0.0953,-0.0100,5.8497,8.5117,-10.5849
12576,-0.0380,-0.0366,9.8004,0.0257,0.0704,0.0819,5.8624,8.5198,-10.6167
12584,-0.0580,-0.0370,9.8018,0.0237,0.0200,-0.0674,5.8768,8.5336,-10.6491
12592,-0.0533,-0.0716,9.8155,0.0510,0.0944,-0.0743,5.8911,8.5473,-10.6813
12600,-0.0446,-0.1042,9.8187,0.0399,0.0856,-0.1688,5.9054,8.5609,-10.7133
12608,-0.0239,-0.1118,9.8239,0.0906,0.0478,-0.1152,5.9176,8.5663,-10.7502
12616,-0.0111,-0.0928,9.8427,0.1044,0.1130,-0.1493,5.9297,8.5716,-10.7868
12624,-0.0100,-0.0969,9.8470,0.1575,0.0580,-0.0833,5.9441,8.5816,-10.8217
12632,0.0010,-0.0552,9.8526,0.0937,0.1174,-0.0868,5.9584,8.5916,-10.8564
12640,0.0096,-0.0574,9.8537,0.0460,0.0543,-0.1114,5.9750,8.5929,-10.8898
12648,0.0088,-0.0536,9.8460,0.0138,0.0259,-0.2843,5.9900,8.6027,-10.9182
12656,0.0012,-0.0246,9.8477,0.0256,0.0440,-0.3510,6.0083,8.6106,-10.9539
12664,-0.0126,-0.0066,9.8460,-0.0378,0.1067,-0.4068,6.0226,8.6174,-10.9903
12672,-0.0255,-0.0408,9.8326,-0.0851,0.1800,-0.5908,6.0369,8.6242,-11.0265
12680,-0.0303,-0.0385,9.8310,-0.0876,0.1808,-0.7348,6.0486,8.6309,-11.0647
12688,-0.0191,-0.0743,9.8364,-0.0900,0.2722,-0.7284,6.0673,8.6352,-11.0955
12696,-0.0196,-0.0957,9.8344,0.0330,0.2076,-0.7437,6.0807,8.6413,-11.1294
12704,-0.0090,-0.0709,9.8281,-0.0174,0.2525,-0.7183,6.0940,8.6474,-11.1630
12712,-0.0040,-0.0357,9.8288,0.0251,0.2581,-0.6060,6.1072,8.6534,-11.1963
12720,0.0128,-0.0284,9.8321,0.0498,0.3407,-0.5387,6.1222,8.6560,-11.2332
12728,0.0067,-0.0342,9.8228,0.0360,0.3025,-0.5222,6.1370,8.6585,-11.2698
12736,0.0120,0.0062,9.8362,0.0549,0.2792,-0.5519,6.1551,8.6625,-11.3075
12744,0.0100,0.0208,9.8243,-0.0285,0.3370,-0.5855,6.1754,8.6687,-11.3435
12752,0.0054,-0.0383,9.8408,-0.0468,0.3335,-0.6284,6.1956,8.6749,-11.3792
12760,0.0200,-0.0545,9.8343,-0.0137,0.3169,-0.6480,6.2100,8.6811,-11.4113
12768,0.0072,-0.0432,9.8093,-0.0540,0.3303,-0.7762,6.2256,8.6877,-11.4494
12776,-0.0103,0.0039,9.8259,0.0008,0.2685,-0.7733,6.2454,8.6899,-11.4857
12784,-0.0092,-0.0413,9.8272,-0.0562,0.2334,-0.7120,6.2651,8.6921,-11.5217
12792,-0.0015,-0.0727,9.8229,-0.0306,0.1545,-0.6533,6.2799,8.6981,-11.5551
12800,0.0174,-0.0692,9.8186,-0.0809,0.0924,-0.6799,6.2969,8.7040,-11.5882
12808,-0.0002,-0.0674,9.8147,-0.0276,0.0196,-0.7639,6.3114,8.7074,-11.6235
12816,-0.0265,-0.0781,9.8198,-0.0513,0.1101,-0.7057,6.3259,8.7109,-11.6584
12824,-0.0249,-0.0573,9.7884,-0.1380,0.1112,-0.7033,6.3402,8.7142,-11.6931
12832,-0.0293,-0.0347,9.7778,-0.0849,0.1283,-0.6290,6.3548,8.7166,-11.7280
12840,-0.0173,-0.0376,9.7901,-0.0207,0.1100,-0.5926,6.3694,8.7189,-11.7626
12848,-0.0143,-0.0566,9.7816,-0.0128,0.0125,-0.5711,6.3900,8.7212,-11.7994
12856,-0.0001,-0.0583,9.8017,-0.0051,0.0073,-0.5533,6.4062,8.7278,-11.8387
12864,-0.0042,-0.0785,9.7875,-0.0112,0.0102,-0.3736,6.4223,8.7343,-11.8777
12872,-0.0055,-0.0380,9.7775,-0.0409,-0.0322,-0.2524,6.4406,8.7359,-11.9188
12880,-0.0059,-0.0438,9.7711,-0.0267,0.0018,-0.1685,6.4593,8.7381,-11.9495
12888,-0.0066,-0.0221,9.7876,-0.0505,-0.1443,-0.1176,6.4792,8.7416,-11.9891
12896,-0.0192,0.0026,9.7885,-0.0492,-0.1960,-0.1275,6.4948,8.7445,-12.0231
12904,-0.0114,0.0217,9.8038,-0.1039,-0.1895,-0.1131,6.5102,8.7475,-12.0568
12912,-0.0048,-0.0203,9.8141,-0.0817,-0.3086,-0.1073,6.5255,8.7504,-12.0903
12920,-0.0011,-0.0026,9.8183,-0.1350,-0.2224,-0.1551,6.5435,8.7537,-12.1310
12928,0.0132,-0.0095,9.8117,-0.1913,-0.0921,-0.0994,6.5614,8.7570,-12.1715
12936,0.0147,-0.0106,9.8221,-0.1492,0.0139,-0.1315,6.5769,8.7565,-12.2050
12944,0.0284,-0.0240,9.8397,-0.1623,0.0513,-0.0796,6.5921,8.7559,-12.2383
12952,0.0358,-0.0238,9.8429,-0.1535,0.0950,-0.0619,6.6092,8.7562,-12.2741
12960,0.0556,-0.0441,9.8522,-0.1797,0.0301,0.0697,6.6257,8.7608,-12.3134
12968,0.0299,-0.0356,9.8483,-0.1541,-0.0559,0.1128,6.6435,8.7583,-12.3529
12976,0.0394,-0.0115,9.8520,-0.1642,-0.0261,0.1061,6.7795,8.7557,-12.3921
12984,0.0371,-0.0216,9.8372,-0.1980,-0.0484,0.1530,6.7926,8.7573,-12.4272
12992,0.0281,-0.0024,9.8379,-0.1662,-0.0776,0.1792,6.8051,8.7566,-12.4668
13000,0.0291,-0.0061,9.8376,-0.1439,-0.0923,0.3135,6.8212,8.7577,-12.5033
13008,0.0346,-0.0504,9.8483,-0.1305,-0.1356,0.4714,6.8366,8.7540,-12.5428
13016,0.0200,-0.1064,9.8306,-0.0831,-0.0810,0.5530,6.8513,8.7504,-12.5820
13024,0.0072,-0.0915,9.8219,-0.1603,-0.1142,0.5590,6.8654,8.7467,-12.6209
13032,-0.0085,-0.0917,9.8149,-0.1756,-0.1192,0.5567,6.8740,8.7477,-12.6628
13040,-0.0058,-0.0873,9.8082,-0.2462,-0.1347,0.5279,6.8820,8.7487,-12.7045
13048,-0.0075,-0.0788,9.8153,-0.2416,-0.1149,0.5377,6.8894,8.7511,-12.7424
13056,0.0010,-0.0738,9.8080,-0.3120,-0.0932,0.5897,6.8962,8.7535,-12.7801
13064,0.0010,-0.0529,9.8151,-0.2619,-0.0272,0.7408,6.9023,8.7559,-12.8209
13072,0.0059,-0.0641,9.8375,-0.2994,-0.0173,0.8026,6.9084,8.7525,-12.8584
13080,-0.0060,-0.0623,9.8500,-0.1939,0.0267,0.8644,6.9134,8.7548,-12.8962
13088,-0.0022,-0.0812,9.8568,-0.2610,0.1088,0.8594,6.9197,8.7490,-12.9356
13096,0.0017,-0.0332,9.8365,-0.1918,0.1420,0.8281,6.9254,8.7432,-12.9747
13104,-0.0043,-0.0481,9.8373,-0.2617,0.1418,0.7687,6.9381,8.7402,-13.0130
13112,-0.0070,-0.0283,9.8256,-0.3072,0.2269,0.8160,6.9503,8.7372,-13.0510
13120,-0.0077,-0.0176,9.8142,-0.2547,0.1323,0.8745,6.9595,8.7342,-13.0874
13128,-0.0192,-0.0795,9.8084,-0.2258,0.1085,0.9144,6.9681,8.7312,-13.1234
13136,-0.0278,-0.0608,9.8128,-0.2248,-0.0450,0.9393,6.9761,8.7282,-13.1592
13144,-0.0388,-0.0657,9.8235,-0.2506,-0.0237,0.9364,6.9846,8.7251,-13.1947
13152,-0.0546,-0.0647,9.8365,-0.2085,-0.0754,0.9044,6.9925,8.7221,-13.2299
13160,-0.0439,-0.0602,9.8322,-0.2750,-0.0848,0.8603,6.9989,8.7204,-13.2673
13168,-0.0593,-0.0524,9.8297,-0.2452,-0.1418,0.8956,7.0048,8.7188,-13.3044
13176,-0.0604,-0.0181,9.8321,-0.1981,-0.0683,0.7986,7.0101,8.7147,-13.3402
13184,-0.0542,0.0321,9.8187,-0.2330,-0.0807,0.7592,7.0135,8.7154,-13.3744
13192,-0.0353,0.0225,9.8293,-0.2424,-0.0872,0.6229,7.0140,8.7090,-13.4098
13200,-0.0292,-0.0491,9.8312,-0.2141,-0.0747,0.7219,7.0140,8.7073,-13.4425
13208,-0.0323,-0.0315,9.8216,-0.2243,0.0145,0.6565,7.0136,8.7055,-13.4750
13216,-0.0369,-0.0269,9.8260,-0.2261,-0.0308,0.7060,7.0159,8.7019,-13.5133
13224,-0.0251,-0.0788,9.8259,-0.2411,-0.0075,0.6573,7.0178,8.6983,-13.5514
13232,-0.0309,-0.0520,9.8227,-0.2501,-0.0599,0.4988,7.0159,8.6989,-13.5902
13240,-0.0284,-0.0605,9.8152,-0.2188,-0.0646,0.4432,7.0135,8.6995,-13.6287
13248,-0.0188,-0.0331,9.7984,-0.1968,-0.0852,0.4273,7.0107,8.7000,-13.6669
13256,-0.0156,-0.0352,9.7950,-0.1438,-0.1022,0.4522,7.0074,8.6968,-13.7035
13264,-0.0150,-0.0585,9.8025,-0.1944,-0.1397,0.4493,7.0055,8.6931,-13.7425
13272,-0.0153,-0.0550,9.8065,-0.2748,-0.1356,0.4705,7.0014,8.6888,-13.7809
13280,-0.0179,-0.0591,9.7910,-0.2957,-0.0864,0.4348,7.0015,8.6846,-13.8189
13288,-0.0070,-0.0488,9.7664,-0.2784,-0.0420,0.3953,7.0012,8.6804,-13.8520
13296,-0.0200,-0.0767,9.7889,-0.2858,0.0165,0.2375,6.9976,8.6757,-13.8938
13304,-0.0176,-0.0993,9.8015,-0.2849,0.0084,0.2974,6.9964,8.6715,-13.9319
13312,-0.0236,-0.0673,9.7723,-0.3027,0.0006,0.2132,6.9939,8.6648,-13.9736
13320,-0.0441,-0.0092,9.7828,-0.2850,0.0866,0.2768,6.9909,8.6582,-14.0149
13328,-0.0271,0.0374,9.7855,-0.2788,-0.0206,0.2389,6.9895,8.6568,-14.0531
13336,-0.0208,0.0181,9.8016,-0.2436,-0.0324,0.2640,6.9876,8.6554,-14.0911
13344,-0.0156,-0.0234,9.8120,-0.2685,-0.0330,0.1733,6.9867,8.6521,-14.1259
13352,-0.0113,-0.0023,9.7864,-0.2710,-0.0363,0.1612,6.9855,8.6488,-14.1604
13360,-0.0111,0.0022,9.7747,-0.2281,0.0353,0.0111,6.9838,8.6455,-14.1946
13368,-0.0018,0.0519,9.7685,-0.1790,0.0024,-0.0632,6.9789,8.6417,-14.2291
13376,-0.0030,0.0266,9.7717,-0.2254,-0.0638,-0.2756,6.9732,8.6359,-14.2637
13384,0.0106,0.0116,9.7845,-0.2458,-0.0737,-0.3480,6.9670,8.6293,-14.3014
13392,-0.0022,0.0066,9.7861,-0.1800,-0.0538,-0.4759,6.9600,8.6245,-14.3455
13400,-0.0083,-0.0130,9.7643,-0.1277,-0.1015,-0.4862,6.9527,8.6198,-14.3893
13408,-0.0111,-0.0111,9.7715,-0.1177,-0.0564,-0.5014,6.9502,8.6117,-14.4218
13416,-0.0018,0.0262,9.7816,-0.0975,-0.0400,-0.5080,6.9479,8.6055,-14.4554
13424,-0.0203,0.0257,9.7803,-0.0515,-0.1043,-0.4689,6.9452,8.5993,-14.4888
13432,-0.0256,0.0280,9.7764,-0.0928,-0.1844,-0.4128,6.9387,8.5908,-14.5300
13440,-0.0126,0.0274,9.7966,-0.1377,-0.1544,-0.3539,6.9320,8.5822,-14.5708
13448,-0.0296,0.0296,9.7888,-0.1086,-0.0750,-0.5322,6.9249,8.5737,-14.6114
13456,-0.0368,0.0238,9.7777,-0.0914,-0.0578,-0.5721,6.9198,8.5628,-14.6460
13464,-0.0378,-0.0220,9.7873,-0.0910,0.0601,-0.6209,6.9159,8.5548,-14.6822
13472,-0.0232,-0.0507,9.8086,-0.0426,0.1834,-0.4568,6.9130,8.5459,-14.7214
13480,-0.0232,-0.0475,9.8034,-0.0630,0.1493,-0.3347,6.9098,8.5369,-14.7604
13488,-0.0141,-0.0564,9.8082,-0.0452,0.0714,-0.3778,6.9034,8.5270,-14.8019
13496,-0.0214,-0.0472,9.8057,-0.0894,0.1143,-0.4218,6.8971,8.5191,-14.8412
13504,-0.0111,-0.0575,9.8176,-0.1078,0.1019,-0.4291,6.8934,8.5116,-14.8765
13512,-0.0191,-0.0523,9.8188,-0.1600,0.0581,-0.4601,6.8894,8.5041,-14.9114
13520,0.0032,-0.0457,9.8436,-0.1272,0.1282,-0.4125,6.8803,8.4919,-14.9495
13528,0.0062,-0.0498,9.8428,-0.1679,0.2032,-0.3562,6.8699,8.4788,-14.9829
13536,-0.0089,-0.0335,9.8315,-0.1402,0.1176,-0.3131,6.8593,8.4657,-15.0161
13544,-0.0158,-0.0237,9.8410,-0.1403,0.0784,-0.2772,6.8517,8.4535,-15.0571
13552,-0.0060,-0.0058,9.8308,-0.0871,0.1610,-0.2696,6.8438,8.4414,-15.0979
13560,-0.0072,-0.0546,9.8330,0.0065,0.1546,-0.2036,6.8356,8.4294,-15.1383
13568,0.0022,-0.0675,9.8391,-0.0374,0.2151,-0.1698,6.8276,8.4206,-15.1789
13576,0.0079,-0.0426,9.8465,-0.0394,0.1850,-0.1882,6.8198,8.4086,-15.2207
13584,0.0209,-0.0534,9.8518,-0.0492,0.1615,-0.2351,6.8132,8.3980,-15.2603
13592,0.0226,-0.0226,9.8561,0.0027,0.1658,-0.1679,6.8062,8.3874,-15.2995
13600,0.0182,-0.0275,9.8377,-0.0410,0.2738,-0.1704,6.8023,8.3721,-15.3385
13608,0.0056,-0.0119,9.8351,-0.0321,0.3051,-0.1354,6.7915,8.3555,-15.3782
13616,0.0220,-0.0343,9.8141,-0.0850,0.2764,-0.0646,6.7861,8.3426,-15.4152
13624,0.0145,-0.0649,9.8134,-0.0662,0.3450,-0.0529,6.7805,8.3298,-15.4519
13632,0.0277,-0.0645,9.8072,-0.1149,0.4692,-0.0337,6.7746,8.3170,-15.4884
13640,0.0115,-0.0782,9.8067,-0.1881,0.3693,-0.0314,6.7641,8.3000,-15.5265
13648,0.0136,-0.0642,9.7893,-0.1515,0.3484,-0.0905,6.7534,8.2830,-15.5643
13656,0.0151,-0.0624,9.7887,-0.1538,0.4058,-0.1576,6.7486,8.2646,-15.5995
13664,0.0142,-0.0462,9.7685,-0.0866,0.3967,-0.2459,6.7436,8.2463,-15.6344
13672,0.0138,-0.0024,9.7725,-0.1078,0.3560,-0.1916,6.7383,8.2280,-15.6691
13680,0.0275,-0.0034,9.7680,-0.0826,0.3331,-0.1130,6.7313,8.2159,-15.7083
13688,0.0209,-0.0106,9.7743,-0.0533,0.3138,-0.0752,6.7256,8.2015,-15.7457
13696,0.0016,-0.0194,9.7856,-0.0625,0.2740,-0.0444,6.7129,8.1876,-15.7848
13704,0.0093,-0.0278,9.8067,-0.1141,0.3294,-0.0736,6.7000,8.1737,-15.8237
13712,0.0239,-0.0195,9.8075,-0.1073,0.3343,-0.1921,6.6916,8.1590,-15.8608
13720,0.0135,-0.0051,9.8033,-0.0849,0.4643,-0.1562,6.6816,8.1442,-15.8958
13728,0.0145,0.0070,9.7954,-0.0074,0.4446,-0.1298,6.6713,8.1319,-15.9305
13736,0.0205,0.0170,9.8009,-0.0427,0.4924,-0.2166,6.6609,8.1196,-15.9649
13744,0.0131,0.0201,9.8083,-0.0284,0.4902,-0.2703,6.6502,8.1073,-15.9992
13752,0.0010,0.0654,9.8044,-0.0121,0.5094,-0.2976,6.6435,8.0941,-16.0346
13760,-0.0027,0.0553,9.8014,-0.0338,0.4584,-0.3610,6.6367,8.0809,-16.0697
13768,0.0017,0.0384,9.8064,-0.0439,0.4310,-0.4217,6.6301,8.0625,-16.1065
13776,-0.0039,0.0409,9.7891,-0.1336,0.4075,-0.4797,6.6228,8.0471,-16.1435
13784,-0.0253,0.0445,9.7971,-0.2007,0.4543,-0.4925,6.6153,8.0316,-16.1803
13792,-0.0302,0.0186,9.7952,-0.1981,0.4324,-0.4275,6.6067,8.0153,-16.2168
13800,-0.0354,0.0138,9.8040,-0.1957,0.4301,-0.4746,6.5945,7.9981,-16.2526
13808,-0.0288,0.0173,9.7960,-0.1827,0.3799,-0.4743,6.5854,7.9828,-16.2877
13816,-0.0361,0.0345,9.7929,-0.2263,0.3799,-0.5647,6.5762,7.9675,-16.3225
13824,-0.0417,0.0082,9.7973,-0.2014,0.3453,-0.5764,6.5643,7.9475,-16.3581
13832,-0.0541,0.0013,9.7918,-0.1508,0.3361,-0.6624,6.5557,7.9276,-16.3934
13840,-0.0730,-0.0237,9.7909,-0.1425,0.2074,-0.5845,6.5439,7.9082,-16.4303
13848,-0.0569,-0.0599,9.7855,-0.1132,0.0550,-0.4328,6.5320,7.8889,-16.4670
13856,-0.0392,-0.0609,9.7688,-0.0745,0.0639,-0.4076,6.5200,7.8696,-16.5035
13864,-0.0409,-0.0776,9.7728,0.0105,0.1497,-0.4263,6.5120,7.8485,-16.5435
13872,-0.0283,-0.0819,9.7751,0.0145,0.1091,-0.3988,6.5038,7.8274,-16.5832
13880,-0.0228,-0.0689,9.7776,0.0316,0.0810,-0.3431,6.4907,7.8092,-16.6203
13888,-0.0333,-0.0648,9.7849,-0.0160,0.0514,-0.3886,6.4788,7.7892,-16.6542
13896,-0.0465,-0.0758,9.7942,-0.0776,0.2338,-0.3387,6.4668,7.7692,-16.6879
13904,-0.0425,-0.0583,9.7985,-0.0191,0.2082,-0.1790,6.4546,7.7517,-16.7238
13912,-0.0188,-0.0475,9.7915,-0.0219,0.2291,-0.0903,6.4432,7.7214,-16.7622
13920,-0.0238,-0.0310,9.8052,-0.0618,0.2357,-0.0855,6.4345,7.6964,-16.7965
13928,-0.0374,-0.0419,9.7898,-0.0494,0.1967,-0.0782,6.4228,7.6795,-16.8311
13936,-0.0325,-0.0314,9.7914,-0.0135,0.2447,-0.0686,6.4109,7.6627,-16.8655
13944,-0.0170,-0.0364,9.7827,0.0395,0.1760,-0.0727,6.3989,7.6460,-16.8996
13952,-0.0226,-0.0532,9.7900,0.0369,0.1982,-0.1460,6.3834,7.6264,-16.9315
13960,-0.0245,-0.0825,9.7979,0.0130,0.2355,-0.1548,6.3677,7.6069,-16.9632
13968,-0.0149,-0.0900,9.7928,0.0409,0.2419,-0.2458,6.3576,7.5855,-16.9957
13976,-0.0207,-0.0885,9.7822,0.0782,0.2319,-0.1622,6.3474,7.5642,-17.0279
13984,-0.0314,-0.0457,9.7722,0.0818,0.1717,-0.1489,6.3370,7.5430,-17.0599
13992,-0.0243,-0.0370,9.7690,0.1173,0.1835,-0.1468,6.3250,7.5242,-17.0973
14000,-0.0078,-0.0488,9.7730,0.2019,0.1228,-0.1422,6.3171,7.5059,-17.1316
14008,-0.0016,-0.0398,9.7621,0.1548,0.1634,-0.1938,6.3053,7.4877,-17.1657
14016,0.0041,-0.0358,9.7713,0.1125,0.1142,0.0075,6.2934,7.4671,-17.2019
14024,0.0106,-0.0131,9.7819,0.0747,0.0885,0.0561,6.2827,7.4466,-17.2332
14032,0.0201,0.0089,9.7728,0.0651,-0.0641,0.2172,6.2743,7.4238,-17.2651
14040,0.0087,0.0297,9.7732,0.1094,0.0087,0.2725,6.2643,7.4025,-17.2969
14048,-0.0008,0.0539,9.7673,0.1037,-0.0177,0.3548,6.2542,7.3812,-17.3284
14056,0.0003,0.0144,9.7892,0.0795,0.0050,0.3455,6.2440,7.3600,-17.3596
14064,-0.0120,0.0032,9.7867,0.1045,0.0214,0.3286,6.2359,7.3375,-17.3898
14072,-0.0063,0.0295,9.7917,0.1763,0.0265,0.3338,6.2278,7.3150,-17.4196
14080,0.0030,0.0310,9.8104,0.1250,0.0313,0.4027,6.2166,7.2883,-17.4498
14088,0.0010,0.0169,9.7991,0.1453,0.0252,0.4233,6.2054,7.2616,-17.4797
14096,0.0178,0.0178,9.7970,0.1887,0.1021,0.4083,6.1944,7.2379,-17.5123
14104,-0.0012,-0.0215,9.8116,0.1529,0.1302,0.4180,6.1862,7.2100,-17.5498
14112,0.0095,-0.0097,9.8188,0.1692,0.0825,0.3073,6.1798,7.1841,-17.5843
14120,-0.0023,0.0120,9.8249,0.2089,0.0022,0.1400,6.1713,7.1601,-17.6180
14128,0.0098,0.0561,9.8340,0.1722,-0.0159,0.1268,6.1628,7.1363,-17.6515
14136,0.0171,0.0788,9.8186,0.1558,-0.0733,0.1488,6.1502,7.1120,-17.6862
14144,0.0174,0.0802,9.8106,0.1320,-0.0588,0.1138,6.1433,7.0877,-17.7230
14152,0.0076,0.0368,9.8038,0.2267,0.0031,0.1443,6.1315,7.0622,-17.7539
14160,0.0087,0.0321,9.8127,0.1572,0.0409,0.1682,6.1196,7.0367,-17.7846
14168,0.0015,0.0607,9.7779,0.1520,-0.0109,0.1938,6.1076,7.0113,-17.8150
14176,0.0033,0.0624,9.7815,0.1205,0.0969,0.1915,6.0978,6.9802,-17.8466
14184,-0.0006,0.0663,9.7907,0.1169,0.1279,0.3093,6.0880,6.9493,-17.8781
14192,-0.0187,0.0269,9.7808,0.0469,0.1550,0.3473,6.0728,6.9198,-17.9121
14200,-0.0187,0.0268,9.7782,0.0919,0.2208,0.4530,6.0575,6.8905,-17.9459
14208,-0.0278,0.0268,9.7859,0.0897,0.1691,0.5141,6.0445,6.8636,-17.9771
14216,-0.0188,-0.0056,9.7928,0.0208,0.1517,0.5938,6.0357,6.8354,-18.0119
14224,-0.0083,-0.0135,9.8064,-0.0717,0.1830,0.6487,6.0272,6.8077,-18.0460
14232,0.0099,-0.0266,9.8068,-0.0561,0.1863,0.6425,6.0158,6.7868,-18.0803
14240,-0.0015,-0.0261,9.7986,-0.0519,0.1202,0.6793,6.0043,6.7659,-18.1144
14248,0.0037,-0.0599,9.8175,-0.0852,0.0782,0.8024,5.9941,6.7384,-18.1445
14256,-0.0107,-0.0449,9.8141,-0.1331,0.1021,0.7735,5.9838,6.7110,-18.1744
14264,0.0013,-0.0850,9.8312,-0.0935,0.0929,0.8073,5.9729,6.6856,-18.2079
14272,0.0089,-0.0836,9.8415,-0.0610,0.0948,0.7488,5.9620,6.6603,-18.2412
14280,0.0013,-0.0881,9.8491,-0.0806,0.0166,0.8263,5.9509,6.6350,-18.2742
14288,-0.0006,-0.0736,9.8559,-0.0327,0.0352,0.9777,5.9450,6.6065,-18.3099
14296,-0.0164,-0.0655,9.8617,-0.0695,0.0210,0.9411,5.9343,6.5748,-18.3396
14304,-0.0271,-0.0686,9.8692,0.0553,0.0607,0.9622,5.9258,6.5464,-18.3762
14312,-0.0126,-0.0787,9.8805,0.0946,0.0400,0.8570,5.9144,6.5182,-18.4126
14320,-0.0091,-0.1020,9.8734,0.0309,0.1349,0.8577,5.9029,6.4896,-18.4421
14328,-0.0087,-0.1048,9.8784,-0.0007,0.1083,0.8610,5.8951,6.4634,-18.4729
14336,-0.0064,-0.0528,9.8451,0.0091,0.0082,0.8669,5.8815,6.4354,-18.5048
14344,-0.0149,-0.0562,9.8282,-0.0269,0.0084,0.9312,5.8735,6.4070,-18.5327
14352,-0.0366,-0.0260,9.8439,-0.0267,-0.0420,0.9927,5.8655,6.3787,-18.5604
14360,-0.0504,-0.0060,9.8558,-0.0237,0.0245,1.0408,5.8583,6.3467,-18.5950
14368,-0.0478,0.0020,9.8360,-0.0396,-0.0693,1.0548,5.8510,6.3148,-18.6293
14376,-0.0487,0.0239,9.8314,-0.0388,0.0144,0.9802,5.8417,6.2873,-18.6602
14384,-0.0536,0.0387,9.8235,-0.0727,-0.0283,1.0342,5.8324,6.2598,-18.6908
14392,-0.0717,0.0102,9.8314,-0.0758,0.0269,1.0459,5.8229,6.2324,-18.7212
14400,-0.0753,-0.0138,9.8404,-0.0787,0.0131,1.0837,5.8144,6.2046,-18.7486
14408,-0.0530,-0.0401,9.8312,-0.0629,0.0291,0.9705,5.8067,6.1760,-18.7781
14416,-0.0489,-0.0429,9.8334,0.0136,-0.0835,0.9822,5.7965,6.1484,-18.8074
14424,-0.0209,-0.0645,9.8345,0.0574,-0.0232,0.9401,5.7820,6.1190,-18.8361
14432,-0.0011,-0.0914,9.8340,0.0087,0.0264,0.8359,5.7675,6.0897,-18.8645
14440,-0.0124,-0.0702,9.8410,0.0927,-0.0328,0.9389,5.7590,6.0581,-18.8961
14448,-0.0130,-0.0943,9.8390,0.0077,-0.0840,0.9440,5.7467,6.0265,-18.9265
14456,-0.0026,-0.0751,9.8400,0.0012,-0.1731,1.0556,5.7344,5.9951,-18.9567
14464,-0.0041,-0.0559,9.8436,-0.0052,-0.1249,1.0396,5.7195,5.9614,-18.9787
14472,-0.0023,-0.0604,9.8460,0.0262,-0.1534,1.0324,5.7047,5.9278,-19.0004
14480,0.0012,-0.0590,9.8595,-0.0186,-0.0901,1.0921,5.6898,5.8943,-19.0221
14488,-0.0003,-0.0327,9.8535,-0.0667,-0.1095,1.0345,5.6772,5.8647,-19.0539
14496,0.0039,-0.0207,9.8558,-0.0940,-0.0534,1.0488,5.6655,5.8333,-19.0771
14504,0.0008,-0.0386,9.8539,-0.1095,-0.0691,1.1745,5.6570,5.8030,-19.1067
14512,-0.0065,0.0054,9.8420,-0.1536,-0.0735,1.1773,5.6485,5.7727,-19.1361
14520,-0.0099,-0.0154,9.8518,-0.1318,-0.1096,1.3534,5.6414,5.7425,-19.1677
14528,-0.0126,-0.0369,9.8448,-0.1776,-0.1015,1.2817,5.6332,5.7120,-19.1962
14536,-0.0072,-0.0309,9.8438,-0.2001,-0.0858,1.2799,5.6245,5.6820,-19.2274
14544,-0.0274,0.0064,9.8329,-0.2990,-0.0148,1.2701,5.6157,5.6521,-19.2584
14552,-0.0166,0.0060,9.8450,-0.3108,0.0399,1.1568,5.6064,5.6209,-19.2921
14560,-0.0145,0.0184,9.8499,-0.3275,0.0387,0.9364,5.5975,5.5902,-19.3227
14568,-0.0030,0.0228,9.8326,-0.2821,0.1737,0.7630,5.5886,5.5596,-19.3531
14576,-0.0036,0.0213,9.8642,-0.2333,0.1960,0.5998,5.5815,5.5287,-19.3780
14584,0.0050,-0.0020,9.8487,-0.3014,0.1561,0.4251,5.5743,5.4978,-19.4028
14592,-0.0155,-0.0079,9.8483,-0.2411,0.1899,0.1914,5.5670,5.4671,-19.4274
14600,-0.0044,-0.0352,9.8470,-0.2342,0.1742,-0.1228,5.5602,5.4369,-19.4561
14608,0.0065,-0.0380,9.8641,-0.1715,0.1059,-0.3379,5.5505,5.4025,-19.4827
14616,0.0060,0.0173,9.8690,-0.2849,0.0913,-0.4049,5.5430,5.3706,-19.5077
14624,0.0100,0.0682,9.8458,-0.2440,0.0879,-0.4743,5.5356,5.3388,-19.5325
14632,-0.0005,0.0424,9.8461,-0.2636,0.0180,-0.6314,5.5280,5.3000,-19.5656
14640,-0.0072,0.0604,9.8459,-0.2503,-0.0301,-0.7735,5.5233,5.2679,-19.5919
14648,-0.0028,0.0517,9.8381,-0.2723,-0.0789,-0.9762,5.5161,5.2369,-19.6238
14656,0.0011,0.0320,9.8491,-0.3013,0.0319,-1.1753,5.5089,5.2060,-19.6554
14664,-0.0012,0.0437,9.8278,-0.3051,-0.0329,-1.3577,5.5016,5.1752,-19.6868
14672,-0.0111,0.0083,9.8143,-0.2953,-0.0495,-1.4574,5.4985,5.1402,-19.7166
14680,0.0124,0.0164,9.8286,-0.3047,-0.0600,-1.6621,5.4953,5.1053,-19.7461
14688,0.0167,0.0050,9.8456,-0.3136,-0.0008,-1.7352,5.4926,5.0677,-19.7703
14696,0.0270,0.0116,9.8236,-0.2688,-0.0428,-1.8212,5.4898,5.0302,-19.7943
14704,0.0108,0.0280,9.8183,-0.2206,-0.0589,-1.8606,5.4869,4.9928,-19.8182
14712,0.0399,0.0233,9.8058,-0.2092,-0.0184,-1.9757,5.4811,4.9513,-19.8409
14720,0.0375,0.0390,9.8140,-0.1263,0.0444,-1.9951,5.4791,4.9127,-19.8686
14728,0.0367,0.0018,9.8606,-0.1644,0.0884,-2.1417,5.4713,4.8719,-19.8977
14736,0.0292,-0.0063,9.8541,-0.1581,0.0825,-2.0871,5.4634,4.8312,-19.9265
14744,0.0333,-0.0087,9.8427,-0.1601,0.1915,-2.1416,5.4641,4.7949,-19.9532
14752,0.0315,-0.0186,9.8388,-0.2074,0.2825,-2.1085,5.4604,4.7540,-19.9798
14760,0.0313,-0.0207,9.8220,-0.3406,0.3107,-1.9887,5.4604,4.7127,-20.0066
14768,0.0475,-0.0518,9.8246,-0.3799,0.2818,-1.8662,5.4604,4.6715,-20.0333
14776,0.0449,-0.0375,9.8133,-0.2816,0.2621,-1.6984,5.4603,4.6305,-20.0598
14784,0.0548,-0.0283,9.8039,-0.3315,0.2326,-1.6232,5.4615,4.5906,-20.0876
14792,0.0542,-0.0632,9.8114,-0.2726,0.1164,-1.5141,5.4627,4.5508,-20.1152
14800,0.0399,-0.0620,9.8059,-0.3096,0.0959,-1.3563,5.4615,4.5125,-20.1402
14808,0.0371,-0.0691,9.8205,-0.2223,0.1084,-1.3095,5.4649,4.4705,-20.1642
14816,0.0450,-0.0623,9.8010,-0.2588,0.0669,-1.1687,5.4682,4.4287,-20.1880
14824,0.0440,-0.0885,9.8037,-0.2484,0.0913,-1.1247,5.4663,4.3842,-20.2106
14832,0.0357,-0.0858,9.8090,-0.2305,0.0853,-1.0853,5.4652,4.3407,-20.2379
14840,0.0369,-0.1189,9.8128,-0.2373,0.1195,-0.9410,5.4670,4.2946,-20.2621
14848,0.0244,-0.1042,9.8195,-0.2465,0.0562,-0.7683,5.4687,4.2485,-20.2862
14856,0.0458,-0.0922,9.8214,-0.2020,0.0544,-0.6805,5.4722,4.2093,-20.3120
14864,0.0328,-0.0928,9.7985,-0.2874,0.1647,-0.6498,5.4718,4.1664,-20.3363
14872,0.0398,-0.0970,9.8029,-0.2598,0.2648,-0.6446,5.4747,4.1255,-20.3566
14880,0.0342,-0.1021,9.8105,-0.2253,0.1925,-0.5728,5.4775,4.0848,-20.3767
14888,0.0287,-0.0990,9.8060,-0.3524,0.1767,-0.5656,5.4803,4.0441,-20.3967
14896,0.0174,-0.0971,9.8051,-0.2872,0.1403,-0.5960,5.4853,3.9989,-20.4190
14904,0.0089,-0.1232,9.8298,-0.2916,0.2094,-0.4944,5.4903,3.9538,-20.4411
14912,0.0177,-0.0858,9.8084,-0.2051,0.1796,-0.4372,5.4938,3.9098,-20.4630
14920,0.0065,-0.0633,9.8050,-0.1224,0.1350,-0.4599,5.4953,3.8645,-20.4886
14928,0.0160,-0.0716,9.8152,-0.0806,0.1564,-0.3376,5.4968,3.8194,-20.5141
14936,0.0099,-0.1006,9.8216,-0.1313,0.2142,-0.4179,5.5029,3.7691,-20.5384
14944,0.0040,-0.0849,9.8311,-0.1425,0.2561,-0.3428,5.5057,3.7214,-20.5602
14952,-0.0173,-0.0638,9.8141,-0.1692,0.2642,-0.2416,5.5117,3.6791,-20.5852
14960,-0.0160,-0.0398,9.8243,-0.1921,0.2986,-0.0542,5.5171,3.6326,-20.6129
14968,-0.0012,-0.0422,9.8303,-0.1686,0.3182,0.1144,5.5225,3.5863,-20.6405
14976,0.0067,-0.0826,9.8335,-0.1915,0.3396,0.2303,5.5279,3.5401,-20.6678
14984,0.0056,-0.1014,9.8323,-0.1760,0.3760,0.2424,5.5345,3.4950,-20.6893
14992,0.0197,-0.0970,9.8421,-0.1692,0.3416,0.3447,5.5411,3.4501,-20.7107
15000,0.0179,-0.0716,9.8241,-0.1868,0.2686,0.2638,5.5458,3.4062,-20.7348
15008,0.0158,-0.0382,9.8278,-0.1795,0.1775,0.2478,5.5503,3.3625,-20.7587
15016,0.0070,-0.0302,9.8217,-0.1352,0.2157,0.2698,5.5548,3.3113,-20.7744
15024,0.0296,-0.0171,9.8252,-0.1302,0.2522,0.1389,5.5593,3.2627,-20.7981
15032,0.0355,-0.0267,9.8362,-0.0535,0.1725,0.1737,5.5632,3.2161,-20.8188
15040,0.0395,-0.0389,9.8338,-0.0521,0.0989,0.2683,5.5694,3.1697,-20.8393
15048,0.0417,-0.0273,9.8357,-0.0187,0.0552,0.3348,5.5755,3.1211,-20.8606
15056,0.0241,-0.0158,9.8288,-0.0428,0.0374,0.3583,5.5759,3.0731,-20.8861
15064,0.0305,-0.0346,9.8371,-0.0632,0.0364,0.4395,5.5781,3.0262,-20.9086
15072,0.0081,-0.0129,9.8182,-0.0320,-0.0979,0.3865,5.5808,2.9776,-20.9305
15080,0.0174,0.0068,9.8075,-0.0769,-0.1250,0.4505,5.5834,2.9291,-20.9522
15088,0.0126,0.0050,9.8051,-0.0504,-0.1349,0.4396,5.5859,2.8808,-20.9738
15096,-0.0036,0.0056,9.7916,-0.0251,-0.1470,0.4986,5.5879,2.8331,-20.9910
15104,-0.0160,-0.0161,9.8103,-0.1316,-0.2146,0.5043,5.5899,2.7856,-21.0081
15112,-0.0180,0.0111,9.8099,-0.1134,-0.1246,0.5258,5.5947,2.7401,-21.0255
15120,-0.0213,0.0390,9.8086,-0.1361,-0.0865,0.3757,5.5994,2.6948,-21.0428
15128,-0.0238,0.0255,9.8106,-0.1044,-0.0448,0.3361,5.6054,2.6473,-21.0662
15136,-0.0128,-0.0077,9.8102,-0.1834,-0.0262,0.3730,5.6091,2.5975,-21.0847
15144,-0.0170,-0.0286,9.8221,-0.2670,-0.0804,0.3602,5.6150,2.5480,-21.1007
15152,-0.0213,-0.0161,9.8320,-0.2722,-0.1162,0.3053,5.6185,2.5042,-21.1152
15160,-0.0206,0.0029,9.8359,-0.2746,-0.0252,0.2288,5.6220,2.4607,-21.1295
15168,0.0070,-0.0072,9.8231,-0.1941,-0.0235,0.2437,5.6273,2.4158,-21.1504
15176,-0.0082,-0.0318,9.8251,-0.1732,-0.0618,0.2899,5.6325,2.3711,-21.1712
15184,-0.0220,-0.0012,9.8178,-0.1159,-0.0718,0.2221,5.6396,2.3266,-21.1904
15192,-0.0180,0.0019,9.8217,-0.0958,-0.0894,0.1893,5.6466,2.2822,-21.2095
15200,-0.0071,-0.0122,9.8307,-0.0632,-0.1115,0.2458,5.6536,2.2380,-21.2285
15208,-0.0087,0.0060,9.8129,-0.0587,-0.1540,0.2653,5.6624,2.1896,-21.2459
15216,-0.0233,-0.0026,9.8150,-0.0623,-0.1226,0.2866,5.6711,2.1414,-21.2680
15224,-0.0106,-0.0212,9.8174,-0.1032,-0.0473,0.0882,5.6798,2.0934,-21.2852
15232,-0.0031,-0.0140,9.8218,-0.0729,0.0221,0.1359,5.6884,2.0455,-21.3023
15240,-0.0019,0.0062,9.8390,-0.1480,0.0084,0.1175,5.6946,1.9927,-21.3169
15248,-0.0044,0.0209,9.8377,-0.0838,0.0033,0.0546,5.7026,1.9466,-21.3333
15256,-0.0189,-0.0100,9.8356,-0.1984,-0.0415,0.1011,5.7081,1.8960,-21.3473
15264,-0.0053,0.0066,9.8250,-0.1986,-0.0071,0.1322,5.7184,1.8494,-21.3644
15272,0.0076,0.0317,9.8187,-0.2735,0.0285,0.0979,5.7286,1.8029,-21.3815
15280,0.0119,-0.0408,9.8280,-0.2731,0.0386,0.2198,5.7382,1.7548,-21.3956
15288,0.0149,-0.0353,9.8405,-0.1928,0.0669,0.2351,5.7478,1.7068,-21.4096
15296,0.0250,-0.0368,9.8509,-0.2466,0.0513,0.2470,5.7601,1.6595,-21.4273
15304,0.0131,-0.0230,9.8343,-0.2687,-0.0144,0.1918,5.7724,1.6123,-21.4449
15312,0.0255,0.0094,9.8440,-0.2792,-0.0264,0.1602,5.7846,1.5654,-21.4624
15320,0.0090,0.0812,9.8508,-0.2386,0.0020,0.2661,5.7920,1.5162,-21.4789
15328,0.0037,0.0855,9.8352,-0.2824,-0.0188,0.3113,5.8022,1.4668,-21.4957
15336,0.0116,0.0917,9.8397,-0.2683,-0.0546,0.3332,5.8080,1.4218,-21.5129
15344,0.0233,0.0631,9.8297,-0.3082,-0.0063,0.2529,5.8148,1.3690,-21.5299
15352,0.0234,0.0888,9.8316,-0.3196,0.0399,0.4054,5.8215,1.3164,-21.5455
15360,0.0139,0.0774,9.8319,-0.3812,-0.0252,0.4872,5.8338,1.2725,-21.5643
15368,0.0113,0.0684,9.8144,-0.3735,-0.0954,0.5921,5.8413,1.2226,-21.5830
15376,0.0007,0.0339,9.8291,-0.4061,-0.2266,0.5990,5.8488,1.1729,-21.6015
15384,0.0034,-0.0156,9.8247,-0.3892,-0.2801,0.6670,5.8562,1.1235,-21.6200
15392,0.0063,0.0025,9.8211,-0.4131,-0.3045,0.6867,5.8664,1.0761,-21.6346
15400,0.0094,-0.0344,9.8133,-0.3773,-0.4479,0.6122,5.8765,1.0289,-21.6491
15408,0.0122,-0.0209,9.8422,-0.3537,-0.5210,0.7090,5.8880,0.9819,-21.6668
15416,0.0238,-0.0233,9.8329,-0.3152,-0.5776,0.7429,5.9013,0.9322,-21.6801
15424,0.0294,-0.0618,9.8472,-0.3343,-0.5544,0.6632,5.9145,0.8828,-21.6934
15432,0.0303,-0.0667,9.8351,-0.2673,-0.5348,0.7204,5.9263,0.8335,-21.7042
15440,0.0466,-0.0483,9.8433,-0.2698,-0.5188,0.6605,5.9346,0.7877,-21.7107
15448,0.0672,-0.0394,9.8429,-0.3176,-0.4795,0.6511,5.9467,0.7393,-21.7256
15456,0.0431,-0.0304,9.8444,-0.3180,-0.3832,0.5675,5.9540,0.6911,-21.7414
15464,0.0313,-0.0323,9.8549,-0.3770,-0.3285,0.5249,5.9613,0.6430,-21.7571
15472,0.0229,-0.0641,9.8594,-0.3401,-0.3028,0.5108,5.9761,0.5933,-21.7699
15480,0.0276,-0.0546,9.8388,-0.3795,-0.2676,0.2547,5.9841,0.5414,-21.7792
15488,0.0228,-0.0387,9.8344,-0.4331,-0.2926,0.1537,5.9921,0.4897,-21.7885
15496,0.0243,-0.0198,9.8440,-0.4658,-0.2099,0.0439,6.0053,0.4401,-21.8030
15504,0.0129,-0.0455,9.8431,-0.4063,-0.1761,0.0775,6.0184,0.3907,-21.8173
15512,0.0177,-0.0469,9.8492,-0.4188,-0.2051,-0.0077,6.0315,0.3415,-21.8316
15520,0.0124,-0.0609,9.8392,-0.4468,-0.2195,0.0655,6.0439,0.2921,-21.8439
15528,0.0012,-0.0763,9.8442,-0.4388,-0.1666,0.0529,6.0568,0.2419,-21.8571
15536,-0.0134,-0.0333,9.8342,-0.4019,-0.1320,0.2114,6.0683,0.1872,-21.8664
15544,-0.0244,-0.0650,9.8498,-0.3905,-0.0989,0.2404,6.0796,0.1327,-21.8756
15552,-0.0389,-0.0827,9.8465,-0.3824,-0.1606,0.1881,6.0961,0.0818,-21.8867
15560,-0.0278,-0.0783,9.8655,-0.3346,-0.1476,0.3354,6.1073,0.0339,-21.8981
15568,-0.0260,-0.0765,9.8535,-0.2702,-0.1512,0.3189,6.1223,-0.0123,-21.9048
15576,-0.0121,-0.0850,9.8617,-0.2540,-0.1173,0.3245,6.1371,-0.0583,-21.9114
15584,-0.0210,-0.0849,9.8510,-0.3451,-0.1915,0.5032,6.1519,-0.1041,-21.9179
15592,-0.0171,-0.0689,9.8463,-0.3843,-0.1879,0.5940,6.1667,-0.1559,-21.9282
15600,-0.0113,-0.0421,9.8620,-0.4111,-0.2430,0.5636,6.1813,-0.2074,-21.9384
15608,0.0044,-0.0128,9.8572,-0.4127,-0.2744,0.5531,6.1968,-0.2554,-21.9519
15616,0.0072,0.0178,9.8660,-0.3715,-0.2911,0.6818,6.2123,-0.3032,-21.9652
15624,0.0102,-0.0156,9.8421,-0.4469,-0.2538,0.8262,6.2301,-0.3555,-21.9762
15632,0.0097,0.0093,9.8300,-0.4523,-0.1700,0.9563,6.2425,-0.3995,-21.9899
15640,-0.0075,0.0410,9.8186,-0.4227,-0.1300,1.1260,6.2597,-0.4400,-21.9978
15648,-0.0090,0.0095,9.8179,-0.4638,-0.1023,1.2003,6.2786,-0.4903,-22.0038
15656,-0.0154,0.0034,9.8305,-0.4791,-0.0332,1.2953,6.2975,-0.5403,-22.0098
15664,-0.0221,0.0069,9.8322,-0.4031,-0.0418,1.2849,6.3101,-0.5892,-22.0157
15672,-0.0336,0.0397,9.8143,-0.3384,-0.0527,1.3042,6.3256,-0.6370,-22.0201
15680,-0.0472,0.0466,9.8035,-0.2605,-0.0764,1.2374,6.3409,-0.6812,-22.0268
15688,-0.0418,-0.0173,9.8179,-0.2234,-0.0778,1.2668,6.3562,-0.7252,-22.0335
15696,-0.0318,-0.0377,9.8149,-0.1852,-0.0257,0.9936,6.3714,-0.7690,-22.0402
15704,-0.0411,-0.0248,9.8045,-0.1247,-0.0053,0.8977,6.3908,-0.8193,-22.0496
15712,-0.0444,-0.0040,9.7919,-0.1228,-0.0071,0.7793,6.4101,-0.8694,-22.0590
15720,-0.0214,-0.0412,9.8070,-0.1130,-0.0728,0.7301,6.4246,-0.9192,-22.0683
15728,-0.0080,-0.0526,9.8032,-0.0743,-0.1330,0.6004,6.4390,-0.9688,-22.0776
15736,-0.0031,-0.0428,9.8035,-0.0987,-0.1612,0.6230,6.4539,-1.0187,-22.0872
15744,0.0087,-0.0568,9.8165,-0.1753,-0.1162,0.5166,6.4729,-1.0689,-22.0964
15752,0.0124,-0.0370,9.8073,-0.1685,-0.1052,0.3962,6.4919,-1.1179,-22.1017
15760,-0.0010,-0.0670,9.7936,-0.1088,-0.1159,0.2544,6.5084,-1.1714,-22.1060
15768,-0.0068,-0.0882,9.7861,-0.0729,-0.1662,0.2602,6.5248,-1.2247,-22.1102
15776,-0.0211,-0.0422,9.7885,-0.0120,-0.1157,0.1670,6.5393,-1.2711,-22.1149
15784,-0.0273,-0.0389,9.7851,-0.0070,-0.0646,0.0112,6.5537,-1.3172,-22.1195
15792,-0.0296,-0.0874,9.7881,0.0590,-0.0985,-0.0897,6.5742,-1.3656,-22.1241
15800,-0.0331,-0.1394,9.7921,0.0822,-0.0616,-0.1623,6.5946,-1.4137,-22.1287
15808,-0.0322,-0.1510,9.7957,-0.0130,-0.0796,-0.2610,6.6150,-1.4615,-22.1332
15816,-0.0337,-0.1214,9.7839,-0.1307,-0.1475,-0.4460,6.6352,-1.5116,-22.1377
15824,-0.0427,-0.0860,9.7674,-0.1579,-0.1377,-0.5350,6.6554,-1.5590,-22.1422
15832,-0.0463,-0.0489,9.7715,-0.1572,-0.0031,-0.7454,6.6802,-1.6100,-22.1489
15840,-0.0346,-0.0636,9.7621,-0.1673,0.0350,-0.9012,6.7007,-1.6589,-22.1537
15848,-0.0486,-0.0528,9.7599,-0.2276,0.0741,-1.0503,6.7211,-1.7076,-22.1585
15856,-0.0530,-0.0230,9.7602,-0.2985,0.0342,-1.1181,6.7414,-1.7584,-22.1657
15864,-0.0584,-0.0237,9.7605,-0.3477,0.0947,-1.1350,6.7568,-1.8028,-22.1694
15872,-0.0605,-0.0308,9.7616,-0.3974,0.1818,-1.2712,6.7760,-1.8522,-22.1755
15880,-0.0506,-0.0036,9.7786,-0.4316,0.1505,-1.3241,6.7952,-1.9015,-22.1815
15888,-0.0772,-0.0126,9.7767,-0.4323,0.1312,-1.3320,6.8161,-1.9476,-22.1899
15896,-0.0529,-0.0244,9.7736,-0.3424,0.1341,-1.4088,6.8370,-1.9936,-22.1982
15904,-0.0565,-0.0218,9.7853,-0.2963,0.2035,-1.3917,6.8597,-2.0403,-22.2013
15912,-0.0643,-0.0993,9.8073,-0.3376,0.1846,-1.3300,6.8822,-2.0867,-22.2043
15920,-0.0504,-0.0978,9.8163,-0.2198,0.1318,-1.3056,6.9047,-2.1330,-22.2073
15928,-0.0410,-0.0769,9.8026,-0.1364,0.1347,-1.1863,6.9267,-2.1781,-22.2140
15936,-0.0466,-0.0698,9.8148,-0.1020,0.1934,-1.1335,6.9490,-2.2287,-22.2146
15944,-0.0458,-0.0671,9.8208,-0.0451,0.1723,-0.9924,6.9732,-2.2786,-22.2170
15952,-0.0455,-0.0582,9.8304,-0.0148,0.2187,-0.8842,6.9958,-2.3269,-22.2179
15960,-0.0534,-0.0593,9.8335,0.0543,0.1751,-0.8926,7.0183,-2.3749,-22.2189
15968,-0.0510,-0.0707,9.8296,0.0590,0.1601,-0.9727,7.0450,-2.4232,-22.2193
15976,-0.0511,-0.0137,9.7991,0.1435,0.1270,-1.0093,7.0669,-2.4727,-22.2207
15984,-0.0362,0.0038,9.8071,0.1256,0.0448,-1.0230,7.0887,-2.5219,-22.2220
15992,-0.0523,0.0464,9.7901,0.1272,0.0355,-1.1934,7.1109,-2.5667,-22.2219
16000,-0.0527,0.0354,9.8126,0.0994,0.0825,-1.3483,7.1330,-2.6113,-22.2218
16008,-0.0559,0.0336,9.8061,0.1341,0.0316,-1.4111,7.1550,-2.6557,-22.2216
16016,-0.0705,0.0270,9.7997,0.0927,0.0255,-1.5512,7.1755,-2.7065,-22.2253
16024,-0.0588,0.0442,9.7930,0.0370,0.0250,-1.6612,7.1959,-2.7570,-22.2288
16032,-0.0490,0.0033,9.8025,-0.0268,0.1152,-1.6810,7.2224,-2.8022,-22.2343
16040,-0.0348,0.0743,9.8028,-0.0372,0.1935,-1.6946,7.2489,-2.8471,-22.2397
16048,-0.0346,0.0697,9.8082,0.0488,0.1723,-1.6383,7.2742,-2.8965,-22.2394
16056,-0.0394,0.0797,9.8216,0.0351,0.1814,-1.7284,7.3004,-2.9443,-22.2377
16064,-0.0484,0.0810,9.8357,0.0086,0.1261,-1.7693,7.3289,-2.9909,-22.2383
16072,-0.0497,0.1190,9.8278,0.0900,0.0946,-1.8084,7.3578,-3.0373,-22.2389
16080,-0.0658,0.0952,9.8162,0.1171,0.0484,-1.8938,7.3866,-3.0854,-22.2413
16088,-0.0541,0.0540,9.8189,0.1031,0.0549,-1.9407,7.4143,-3.1280,-22.2366
16096,-0.0243,0.0723,9.8309,0.0657,0.0505,-1.9830,7.4419,-3.1704,-22.2320
16104,-0.0083,0.0492,9.8286,0.0565,0.1022,-2.1034,7.4642,-3.2160,-22.2316
16112,-0.0029,0.0484,9.8246,0.1198,0.0770,-2.0772,7.4864,-3.2614,-22.2311
16120,-0.0062,0.0545,9.8269,0.1137,0.1143,-2.2015,7.5085,-3.3065,-22.2307
16128,0.0099,0.0272,9.8313,0.1584,0.1819,-2.0697,7.5377,-3.3548,-22.2302
16136,-0.0101,0.0859,9.8198,0.1052,0.1800,-1.9010,7.5667,-3.4051,-22.2283
16144,-0.0013,0.0943,9.8017,0.1531,0.1967,-1.8783,7.5947,-3.4539,-22.2259
16152,-0.0212,0.0906,9.7989,0.1001,0.1167,-1.7953,7.6226,-3.5024,-22.2235
16160,-0.0119,0.0375,9.8096,0.1135,0.1176,-1.5052,7.6528,-3.5506,-22.2202
16168,-0.0298,0.0724,9.8007,0.0836,0.0944,-1.3399,7.6881,-3.5954,-22.2173
16176,-0.0114,0.0840,9.8189,0.0497,0.0803,-1.2884,7.7190,-3.6423,-22.2168
16184,-0.0308,0.0776,9.8437,0.0679,0.1574,-1.1992,7.7521,-3.6927,-22.2082
16192,-0.0214,0.0399,9.8397,0.0374,0.0791,-0.9752,7.7851,-3.7429,-22.1996
16200,-0.0412,-0.0216,9.8474,0.0802,0.0870,-0.9024,7.8195,-3.7924,-22.1948
16208,-0.0527,-0.0320,9.8358,0.0944,0.1718,-0.8060,7.8537,-3.8417,-22.1900
16216,-0.0536,-0.0229,9.8229,0.0387,0.1089,-0.6259,7.8892,-3.8869,-22.1900
16224,-0.0562,-0.0296,9.8186,-0.0386,0.0061,-0.5817,7.9246,-3.9319,-22.1899
16232,-0.0298,-0.0543,9.8165,-0.0218,0.0465,-0.5687,7.9599,-3.9767,-22.1898
16240,-0.0251,-0.0995,9.8164,-0.0405,0.0531,-0.4416,7.9936,-4.0237,-22.1850
16248,-0.0323,-0.1249,9.8250,0.0031,0.0727,-0.3041,8.0310,-4.0680,-22.1792
16256,-0.0424,-0.1648,9.8155,-0.0167,0.0462,-0.2366,8.0635,-4.1183,-22.1720
16264,-0.0410,-0.1917,9.8114,-0.0062,0.0821,-0.1534,8.0959,-4.1684,-22.1648
16272,-0.0348,-0.1509,9.8095,-0.0495,0.0818,-0.0898,8.1320,-4.2177,-22.1596
16280,-0.0383,-0.1587,9.7988,-0.1256,-0.0491,-0.0824,8.1689,-4.2602,-22.1571
16288,-0.0218,-0.1707,9.8190,-0.0330,-0.0810,-0.1339,8.2067,-4.3082,-22.1547
16296,-0.0324,-0.1602,9.7987,-0.0698,-0.1328,-0.1032,8.2443,-4.3559,-22.1522
16304,-0.0389,-0.1830,9.7989,-0.0357,-0.0944,-0.2684,8.2818,-4.4034,-22.1498
16312,-0.0365,-0.2000,9.8306,-0.1391,-0.0790,-0.2798,8.3206,-4.4558,-22.1449
16320,-0.0175,-0.1630,9.8265,-0.1179,0.0078,-0.2827,8.3592,-4.5080,-22.1401
16328,-0.0217,-0.1154,9.8163,-0.1323,-0.0612,-0.2402,8.4029,-4.5566,-22.1348
16336,-0.0182,-0.1443,9.8290,-0.1275,0.0274,-0.2901,8.4427,-4.6040,-22.1238
16344,-0.0224,-0.1253,9.8442,-0.2055,0.0322,-0.4766,8.4824,-4.6512,-22.1128
16352,-0.0293,-0.1560,9.8497,-0.2054,0.0021,-0.4415,8.5228,-4.6948,-22.1080
16360,-0.0424,-0.1733,9.8392,-0.2373,0.0239,-0.5387,8.5636,-4.7378,-22.1004
16368,-0.0301,-0.1926,9.8337,-0.1479,0.0608,-0.4929,8.6019,-4.7843,-22.0928
16376,-0.0272,-0.2027,9.8379,-0.1423,0.0375,-0.5825,8.6405,-4.8310,-22.0852
16384,-0.0228,-0.1864,9.8422,-0.1424,0.0151,-0.6095,8.6790,-4.8775,-22.0804
16392,-0.0319,-0.1753,9.8374,-0.1477,-0.0569,-0.7046,8.7193,-4.9218,-22.0681
16400,-0.0557,-0.1552,9.8358,-0.1422,-0.0778,-0.7369,8.7590,-4.9664,-22.0600
16408,-0.0394,-0.1334,9.8316,-0.2089,-0.1164,-0.7305,8.7985,-5.0108,-22.0520
16416,-0.0402,-0.0909,9.8265,-0.1607,-0.0493,-0.6097,8.8379,-5.0550,-22.0440
16424,-0.0295,-0.0848,9.8214,-0.2532,-0.0786,-0.5848,8.8847,-5.1008,-22.0365
16432,-0.0339,-0.0797,9.8081,-0.2511,-0.1412,-0.5104,8.9314,-5.1464,-22.0290
16440,-0.0411,-0.0710,9.7878,-0.2543,-0.0357,-0.4712,8.9737,-5.1889,-22.0196
16448,-0.0422,-0.0795,9.7951,-0.1508,-0.0282,-0.3590,9.0186,-5.2365,-22.0064
16456,-0.0645,-0.0576,9.7897,-0.1771,-0.0636,-0.2945,9.0634,-5.2838,-21.9932
16464,-0.0643,-0.0697,9.7990,-0.1303,-0.0309,-0.2407,9.1024,-5.3237,-21.9825
16472,-0.0695,-0.0847,9.7934,-0.2349,-0.0156,-0.2027,9.1493,-5.3659,-21.9680
16480,-0.0669,-0.0842,9.7982,-0.1375,-0.1022,-0.2196,9.1927,-5.4149,-21.9573
16488,-0.0619,-0.1038,9.8108,-0.0738,-0.0811,-0.2545,9.2341,-5.4608,-21.9457
16496,-0.0541,-0.1319,9.8158,-0.1301,-0.0263,-0.1945,9.2754,-5.5065,-21.9341
16504,-0.0498,-0.1105,9.8063,-0.1120,0.1061,-0.2144,9.3165,-5.5520,-21.9225
16512,-0.0482,-0.1094,9.8163,-0.1400,0.0701,-0.3162,9.3584,-5.5949,-21.9077
16520,-0.0413,-0.0655,9.8026,-0.1295,0.0197,-0.4668,9.4002,-5.6375,-21.8929
16528,-0.0155,-0.0404,9.8047,-0.1594,0.0221,-0.7362,9.4475,-5.6828,-21.8833
16536,-0.0427,-0.0236,9.8071,-0.1347,0.0858,-0.7671,9.4947,-5.7279,-21.8738
16544,-0.0468,-0.0202,9.7934,-0.1804,0.0853,-0.9060,9.5450,-5.7695,-21.8675
16552,-0.0482,-0.0577,9.8064,-0.2241,0.0716,-1.0175,9.5904,-5.8046,-21.8571
16560,-0.0640,-0.0725,9.7891,-0.2899,0.1064,-1.2495,9.6352,-5.8510,-21.8447
16568,-0.0543,-0.0977,9.7721,-0.2675,0.0891,-1.2446,9.6851,-5.8919,-21.8376
16576,-0.0368,-0.0909,9.7826,-0.3367,0.1978,-1.1787,9.7348,-5.9326,-21.8305
16584,-0.0482,-0.1162,9.7794,-0.2989,0.1444,-1.0649,9.7815,-5.9736,-21.8173
16592,-0.0532,-0.1200,9.7888,-0.2867,0.1441,-0.9455,9.8276,-6.0196,-21.8103
16600,-0.0458,-0.0642,9.7936,-0.2324,0.2318,-0.8019,9.8744,-6.0644,-21.8032
16608,-0.0286,-0.0952,9.7984,-0.2072,0.1903,-0.7953,9.9211,-6.1090,-21.7962
16616,-0.0295,-0.0951,9.8083,-0.1617,0.1106,-0.7330,9.9677,-6.1534,-21.7892
16624,-0.0330,-0.0726,9.8008,-0.1876,0.1944,-0.6814,10.0145,-6.1957,-21.7746
16632,-0.0481,-0.0673,9.8054,-0.2069,0.1998,-0.6588,10.0613,-6.2378,-21.7601
16640,-0.0284,-0.0151,9.8041,-0.2575,0.1544,-0.6957,10.1073,-6.2825,-21.7485
16648,-0.0489,-0.0226,9.8039,-0.1858,0.1563,-0.6298,10.1533,-6.3271,-21.7368
16656,-0.0460,0.0012,9.8086,-0.1146,0.1314,-0.5134,10.2014,-6.3690,-21.7219
16664,-0.0402,0.0309,9.8016,-0.1452,0.2223,-0.4394,10.2447,-6.4074,-21.7061
16672,-0.0295,0.0181,9.7975,-0.1824,0.1625,-0.3660,10.2954,-6.4485,-21.6941
16680,-0.0326,0.0353,9.7951,-0.1754,0.1667,-0.3118,10.3435,-6.4941,-21.6831
16688,-0.0149,0.0308,9.8144,-0.2086,0.0427,-0.2786,10.3915,-6.5395,-21.6721
16696,-0.0307,0.0344,9.8273,-0.2217,0.0708,-0.3802,10.4375,-6.5818,-21.6606
16704,-0.0419,0.0273,9.8084,-0.1330,0.0497,-0.3067,10.4833,-6.6240,-21.6492
16712,-0.0310,0.0322,9.7995,-0.1761,0.0908,-0.3031,10.5337,-6.6683,-21.6345
16720,-0.0216,0.0626,9.7965,-0.2120,0.0261,-0.3850,10.5839,-6.7123,-21.6198
16728,-0.0159,0.0099,9.8061,-0.2009,-0.0250,-0.5406,10.6339,-6.7562,-21.6052
16736,-0.0375,0.0370,9.8075,-0.1851,-0.1086,-0.4734,10.6848,-6.7980,-21.5887
16744,-0.0435,0.0806,9.8060,-0.2472,-0.0526,-0.5025,10.7354,-6.8395,-21.5723
16752,-0.0334,0.0331,9.8051,-0.1893,0.0063,-0.3943,10.7845,-6.8809,-21.5535
16760,-0.0074,-0.0036,9.7897,-0.2460,0.1134,-0.4989,10.8334,-6.9221,-21.5348
16768,0.0089,-0.0030,9.8054,-0.1615,0.1570,-0.5402,10.8841,-6.9673,-21.5147
16776,0.0012,-0.0021,9.8018,-0.2460,0.1535,-0.5210,10.9369,-7.0099,-21.5013
16784,0.0039,0.0052,9.8027,-0.2975,0.1901,-0.6760,10.9854,-7.0552,-21.4875
16792,-0.0037,-0.0193,9.8053,-0.2214,0.2170,-0.7336,11.0360,-7.1002,-21.4727
16800,-0.0019,-0.0045,9.8027,-0.1140,0.0588,-0.7780,11.0865,-7.1450,-21.4580
16808,-0.0099,-0.0148,9.8112,-0.0459,0.0969,-0.7271,11.1439,-7.1840,-21.4419
16816,-0.0303,-0.0341,9.8030,-0.0928,0.1840,-0.7104,11.2011,-7.2227,-21.4259
16824,-0.0297,-0.0716,9.8251,-0.0870,0.1792,-0.7825,11.2529,-7.2641,-21.4070
16832,-0.0396,-0.0582,9.8142,-0.1241,0.1080,-0.7981,11.3046,-7.3052,-21.3883
16840,-0.0239,-0.0834,9.8207,-0.0796,0.0746,-0.7543,11.3561,-7.3462,-21.3695
16848,-0.0257,-0.1541,9.8353,-0.1011,0.0506,-0.7178,11.4083,-7.3884,-21.3532
16856,-0.0018,-0.1643,9.8416,-0.0869,-0.0176,-0.5735,11.4623,-7.4284,-21.3331
16864,-0.0202,-0.1598,9.8487,-0.0893,-0.0269,-0.5582,11.5166,-7.4674,-21.3183
16872,-0.0219,-0.1599,9.8452,-0.0170,-0.0757,-0.4743,11.5712,-7.5094,-21.2993
16880,-0.0344,-0.1964,9.8392,-0.0332,-0.1278,-0.4767,11.6256,-7.5513,-21.2803
16888,-0.0347,-0.2007,9.8315,0.0020,-0.1482,-0.4230,11.6865,-7.5896,-21.2643
16896,-0.0204,-0.2215,9.8382,-0.0630,-0.1731,-0.3903,11.7452,-7.6273,-21.2463
16904,-0.0043,-0.2736,9.8151,-0.0318,-0.2556,-0.3243,11.8037,-7.6672,-21.2275
16912,-0.0025,-0.2678,9.8384,0.0220,-0.3824,-0.2106,11.8620,-7.7069,-21.2087
16920,-0.0008,-0.2818,9.8344,-0.0066,-0.3784,-0.1792,11.9224,-7.7515,-21.1924
16928,-0.0071,-0.3295,9.8249,0.0434,-0.3079,-0.1705,11.9827,-7.7960,-21.1761
16936,0.0014,-0.3075,9.8186,0.0140,-0.2991,-0.0502,12.0403,-7.8374,-21.1622
16944,0.0081,-0.2215,9.8101,-0.0382,-0.2508,0.0809,12.0977,-7.8786,-21.1483
16952,0.0070,-0.2781,9.8111,-0.0161,-0.2498,0.1582,12.1549,-7.9196,-21.1345
16960,0.0013,-0.2665,9.8184,-0.0537,-0.3023,0.2428,12.2166,-7.9594,-21.1113
16968,0.0104,-0.2305,9.8186,-0.0283,-0.1684,0.3158,12.2748,-8.0000,-21.0905
16976,0.0113,-0.2270,9.8188,-0.0653,-0.2404,0.4575,12.3299,-8.0422,-21.0740
16984,-0.0039,-0.2266,9.8180,-0.0740,-0.2533,0.3530,12.3848,-8.0810,-21.0495
16992,-0.0017,-0.1875,9.8046,-0.0610,-0.3802,0.3651,12.4395,-8.1195,-21.0250
17000,-0.0215,-0.1367,9.8011,-0.0406,-0.3550,0.3793,12.4982,-8.1612,-21.0016
17008,-0.0376,-0.0884,9.7752,-0.0824,-0.4268,0.4276,12.5576,-8.2008,-20.9811
17016,-0.0262,-0.1153,9.8000,-0.1251,-0.4502,0.5431,12.6168,-8.2401,-20.9607
17024,-0.0232,-0.0914,9.7910,-0.0805,-0.4192,0.5282,12.6758,-8.2784,-20.9417
17032,-0.0137,-0.0346,9.7920,-0.1179,-0.4696,0.5673,12.7346,-8.3164,-20.9228
17040,-0.0160,-0.0015,9.7911,-0.0710,-0.4111,0.6314,12.7931,-8.3543,-20.9040
17048,-0.0258,0.0061,9.7757,-0.1035,-0.4618,0.5913,12.8467,-8.3929,-20.8852
17056,-0.0379,0.0445,9.7663,-0.1186,-0.3956,0.5343,12.9072,-8.4289,-20.8664
17064,-0.0206,0.1033,9.7819,-0.1330,-0.3564,0.6452,12.9655,-8.4658,-20.8411
17072,-0.0149,0.0901,9.7888,-0.0827,-0.3908,0.6632,13.0237,-8.5024,-20.8159
17080,-0.0175,0.0612,9.7913,-0.0960,-0.4158,0.7444,13.0844,-8.5441,-20.7935
17088,-0.0040,0.0415,9.7786,-0.1728,-0.4049,0.6193,13.1406,-8.5836,-20.7732
17096,0.0001,-0.0238,9.7776,-0.0995,-0.4319,0.6598,13.2013,-8.6230,-20.7552
17104,-0.0227,-0.0636,9.7721,-0.0507,-0.3697,0.6158,13.2609,-8.6622,-20.7373
17112,-0.0314,-0.1070,9.7571,-0.0281,-0.4303,0.6271,13.3202,-8.7026,-20.7181
17120,-0.0315,-0.1240,9.7736,-0.0598,-0.4322,0.5925,13.3821,-8.7386,-20.6974
17128,-0.0289,-0.0860,9.7849,0.0273,-0.4046,0.4795,13.4438,-8.7743,-20.6769
17136,-0.0252,-0.0170,9.7915,0.0198,-0.3196,0.2167,13.5056,-8.8166,-20.6568
17144,-0.0096,-0.0152,9.7893,0.0367,-0.3344,0.0881,13.5673,-8.8586,-20.6368
17152,0.0246,-0.0254,9.7936,-0.0085,-0.2498,0.0105,13.6286,-8.9004,-20.6169
17160,0.0387,-0.0155,9.8048,-0.0304,-0.1982,0.0989,13.6874,-8.9396,-20.5938
17168,0.0378,0.0322,9.7995,-0.0273,-0.1649,-0.0059,13.7482,-8.9843,-20.5706
17176,0.0183,0.0257,9.7805,-0.0830,-0.0264,-0.0528,13.8093,-9.0226,-20.5514
17184,0.0148,0.0039,9.7853,-0.1150,0.0554,-0.2309,13.8702,-9.0608,-20.5322
17192,0.0066,0.0338,9.7718,-0.1109,0.0109,-0.3986,13.9275,-9.1039,-20.5131
17200,-0.0040,-0.0330,9.7769,-0.1763,-0.0129,-0.5617,13.9888,-9.1420,-20.4902
17208,-0.0117,0.0127,9.7774,-0.1295,-0.0144,-0.7122,14.0489,-9.1781,-20.4679
17216,-0.0110,0.0304,9.7819,-0.1061,0.0349,-0.8482,14.1087,-9.2139,-20.4456
17224,-0.0054,-0.0142,9.7915,-0.0010,0.0073,-0.8129,14.1683,-9.2496,-20.4234
17232,-0.0276,-0.0140,9.8025,0.0354,0.0370,-0.7952,14.2277,-9.2865,-20.4022
17240,-0.0240,-0.0243,9.8078,0.0250,0.0520,-0.7462,14.2868,-9.3232,-20.3811
17248,-0.0162,-0.0249,9.8013,0.1030,-0.0350,-0.7900,14.3452,-9.3644,-20.3586
17256,-0.0301,-0.0260,9.8191,0.0122,-0.0355,-0.8506,14.4034,-9.4055,-20.3362
17264,-0.0236,-0.0465,9.8142,-0.0239,0.0733,-0.9405,14.4613,-9.4463,-20.3139
17272,0.0079,-0.0601,9.8267,-0.0665,0.0948,-1.1065,14.5237,-9.4859,-20.2878
17280,0.0300,-0.0669,9.8434,-0.0271,0.0913,-1.2146,14.5882,-9.5221,-20.2656
17288,0.0390,-0.0695,9.8335,0.0398,0.0692,-1.3286,14.6481,-9.5628,-20.2439
17296,0.0417,-0.0690,9.8218,0.0478,0.0642,-1.2296,14.7077,-9.6033,-20.2223
17304,0.0446,-0.0058,9.8021,0.0075,0.0620,-1.2283,14.7733,-9.6407,-20.1951
17312,0.0290,-0.0169,9.8129,0.0302,0.0626,-1.1417,14.8286,-9.6803,-20.1708
17320,0.0300,-0.0046,9.8155,-0.0307,0.1245,-1.0643,14.8936,-9.7193,-20.1494
17328,0.0304,-0.0312,9.8041,-0.0063,0.1490,-0.8969,14.9583,-9.7580,-20.1281
17336,0.0243,-0.0117,9.8298,-0.0976,0.1671,-0.9501,15.0226,-9.7966,-20.1069
17344,0.0029,-0.0290,9.8339,-0.0836,0.1844,-0.8383,15.0849,-9.8336,-20.0852
17352,-0.0269,-0.0534,9.8295,-0.1688,0.1690,-0.8275,15.1468,-9.8703,-20.0636
17360,-0.0343,-0.1269,9.8254,-0.1330,0.1436,-0.7584,15.2051,-9.9069,-20.0440
17368,-0.0383,-0.0964,9.8368,-0.2561,0.1619,-0.7670,15.2665,-9.9452,-20.0163
17376,-0.0469,-0.1089,9.8376,-0.2939,0.2168,-0.6526,15.3276,-9.9833,-19.9888
17384,-0.0419,-0.1174,9.8327,-0.2393,0.1066,-0.6046,15.3861,-10.0193,-19.9613
17392,-0.0447,-0.1671,9.8507,-0.2324,0.0226,-0.6412,15.4495,-10.0589,-19.9382
17400,-0.0459,-0.1801,9.8442,-0.1325,-0.0338,-0.4870,15.5140,-10.0969,-19.9137
17408,-0.0383,-0.1710,9.8365,-0.1009,-0.0583,-0.4702,15.5773,-10.1357,-19.8893
17416,-0.0273,-0.1591,9.8368,-0.0681,-0.0818,-0.4007,15.6403,-10.1742,-19.8612
17424,-0.0379,-0.1401,9.8289,-0.0687,-0.0643,-0.2410,15.7030,-10.2126,-19.8332
17432,-0.0420,-0.1265,9.8304,-0.0720,-0.0581,-0.1416,15.7640,-10.2499,-19.8081
17440,-0.0361,-0.1457,9.8199,-0.0964,-0.0150,-0.0839,15.8247,-10.2870,-19.7830
17448,-0.0244,-0.1581,9.8236,-0.1091,0.0236,-0.0927,15.8852,-10.3238,-19.7581
17456,-0.0234,-0.1442,9.8051,-0.0893,0.1112,-0.0611,15.9505,-10.3615,-19.7351
17464,-0.0316,-0.1116,9.7961,-0.1823,0.0083,0.0331,16.0156,-10.3990,-19.7122
17472,-0.0254,-0.0844,9.7902,-0.2419,0.0166,-0.0155,16.0789,-10.4372,-19.6846
17480,-0.0215,-0.0752,9.7963,-0.2376,0.0325,0.0928,16.1377,-10.4719,-19.6619
17488,-0.0099,-0.0619,9.8040,-0.2068,-0.0163,0.0789,16.1962,-10.5065,-19.6392
17496,-0.0276,-0.1023,9.7828,-0.0866,0.0144,0.1483,16.2558,-10.5437,-19.6123
17504,-0.0345,-0.0308,9.7837,-0.1851,-0.0789,0.0440,16.3123,-10.5813,-19.5874
17512,-0.0434,-0.0500,9.7795,-0.0899,-0.1442,0.0296,16.3714,-10.6158,-19.5630
17520,-0.0415,-0.0633,9.7688,-0.0789,-0.2359,0.1199,16.4293,-10.6511,-19.5387
17528,-0.0448,-0.0716,9.7737,-0.1697,-0.2836,0.1048,16.4868,-10.6862,-19.5145
17536,-0.0364,-0.0714,9.7718,-0.0832,-0.2759,0.2611,16.5442,-10.7211,-19.4904
17544,-0.0406,-0.0908,9.7628,-0.0858,-0.3912,0.3439,16.6036,-10.7582,-19.4673
17552,-0.0340,-0.1111,9.7705,-0.0937,-0.4161,0.4204,16.6627,-10.7952,-19.4442
17560,-0.0198,-0.0635,9.7798,-0.1118,-0.4426,0.4322,16.7230,-10.8315,-19.4208
17568,-0.0092,-0.0312,9.7696,-0.0892,-0.4920,0.5342,16.7830,-10.8676,-19.3974
17576,-0.0001,-0.0230,9.7908,-0.0755,-0.4378,0.6290,16.8460,-10.9031,-19.3703
17584,-0.0178,-0.0061,9.7745,-0.0518,-0.5621,0.6157,16.9049,-10.9370,-19.3513
17592,-0.0147,0.0353,9.7853,-0.0905,-0.6595,0.6190,16.9631,-10.9741,-19.3258
17600,-0.0064,0.0485,9.8064,0.0059,-0.6487,0.7021,17.0220,-11.0086,-19.2984
17608,0.0120,0.0236,9.8346,-0.0726,-0.6330,0.6136,17.0806,-11.0429,-19.2712
17616,0.0141,0.0111,9.8410,-0.1077,-0.6980,0.4783,17.1365,-11.0756,-19.2426
17624,0.0174,-0.0189,9.8405,-0.1012,-0.6002,0.3783,17.1922,-11.1082,-19.2140
17632,0.0062,-0.0538,9.8436,-0.1644,-0.4960,0.3706,17.2457,-11.1430,-19.1880
17640,0.0029,-0.0612,9.8414,-0.1395,-0.4524,0.2619,17.2990,-11.1776,-19.1620
17648,0.0095,-0.0711,9.8285,-0.1716,-0.4133,0.2727,17.3520,-11.2120,-19.1361
17656,0.0091,-0.0537,9.8391,-0.2210,-0.3812,0.0483,17.4080,-11.2453,-19.1126
17664,0.0170,-0.0752,9.8287,-0.2229,-0.3799,-0.0143,17.4638,-11.2785,-19.0892
17672,0.0104,-0.0765,9.8293,-0.2461,-0.5147,0.0699,17.5213,-11.3129,-19.0655
17680,0.0085,-0.0891,9.8271,-0.1696,-0.4835,0.1610,17.5784,-11.3472,-19.0417
17688,0.0073,-0.0617,9.8169,-0.1311,-0.4218,0.2135,17.6334,-11.3798,-19.0186
17696,0.0117,-0.0511,9.8086,-0.1823,-0.4027,0.2637,17.6925,-11.4166,-18.9912
17704,0.0065,-0.0214,9.8006,-0.1912,-0.4031,0.3090,17.7512,-11.4503,-18.9687
17712,-0.0095,-0.0091,9.8093,-0.2238,-0.5208,0.3071,17.8059,-11.4830,-18.9429
17720,-0.0018,0.0311,9.8131,-0.2203,-0.5454,0.3105,17.8603,-11.5154,-18.9172
17728,-0.0079,0.0466,9.7892,-0.2196,-0.5636,0.2818,17.9145,-11.5463,-18.8958
17736,0.0138,0.0360,9.7745,-0.2189,-0.5943,0.2463,17.9685,-11.5770,-18.8745
17744,-0.0120,0.0168,9.7752,-0.1702,-0.6130,0.2311,18.0217,-11.6095,-18.8542
17752,-0.0104,0.0273,9.7681,-0.0997,-0.5829,0.2459,18.0747,-11.6418,-18.8340
17760,-0.0189,0.0199,9.7804,-0.1309,-0.5621,0.2787,18.1274,-11.6739,-18.8138
17768,-0.0239,0.0583,9.7874,-0.1341,-0.6863,0.2860,18.1809,-11.7035,-18.7833
17776,-0.0052,0.0138,9.8065,-0.0252,-0.5996,0.3277,18.2364,-11.7353,-18.7576
17784,-0.0156,-0.0032,9.8261,-0.0197,-0.5274,0.3142,18.2927,-11.7689,-18.7310
17792,-0.0286,0.0565,9.8365,-0.0171,-0.5757,0.2560,18.3487,-11.8022,-18.7045
17800,-0.0299,0.0773,9.8258,-0.0172,-0.5766,0.3310,18.4007,-11.8355,-18.6758
17808,-0.0334,0.0528,9.8153,-0.0601,-0.5214,0.3548,18.4553,-11.8690,-18.6490
17816,-0.0334,0.0398,9.8322,-0.1144,-0.5273,0.3428,18.5082,-11.8981,-18.6218
17824,-0.0251,0.0353,9.8311,-0.1289,-0.5409,0.3607,18.5613,-11.9304,-18.5975
17832,-0.0295,-0.0493,9.8429,-0.0656,-0.5567,0.3004,18.6142,-11.9625,-18.5734
17840,-0.0235,0.0048,9.8453,-0.0529,-0.4703,0.3735,18.6641,-11.9926,-18.5441
17848,-0.0130,-0.0661,9.8402,-0.1422,-0.5185,0.4274,18.7137,-12.0226,-18.5148
17856,-0.0135,-0.0755,9.8484,-0.0756,-0.6072,0.4069,18.7645,-12.0552,-18.4852
17864,-0.0159,-0.0463,9.8266,-0.0225,-0.6680,0.4806,18.8151,-12.0876,-18.4557
17872,-0.0138,-0.0025,9.8110,-0.0358,-0.6035,0.4605,18.8654,-12.1200,-18.4263
17880,-0.0120,-0.0221,9.8155,-0.0485,-0.4964,0.4625,18.9208,-12.1502,-18.4045
17888,-0.0163,-0.0125,9.8060,-0.1406,-0.4501,0.5285,18.9730,-12.1846,-18.3810
17896,-0.0179,-0.0293,9.8055,-0.2420,-0.4058,0.4716,19.0260,-12.2122,-18.3556
17904,-0.0234,-0.0304,9.8029,-0.1551,-0.4621,0.5318,19.0787,-12.2448,-18.3279
17912,0.0016,0.0009,9.8077,-0.1732,-0.4359,0.5414,19.1312,-12.2773,-18.3003
17920,-0.0099,0.0070,9.8167,-0.2119,-0.3522,0.5080,19.1815,-12.3078,-18.2689
17928,0.0039,-0.0486,9.8367,-0.2195,-0.2802,0.3426,19.2345,-12.3409,-18.2406
17936,0.0058,0.0278,9.8151,-0.2348,-0.3206,0.2672,19.2872,-12.3738,-18.2123
17944,-0.0065,-0.0075,9.8243,-0.2282,-0.2926,0.2857,19.3397,-12.4067,-18.1841
17952,-0.0095,-0.0166,9.8239,-0.1578,-0.3085,0.3914,19.3938,-12.4412,-18.1565
17960,0.0015,0.0103,9.8209,-0.0985,-0.3531,0.4552,19.4477,-12.4756,-18.1289
17968,0.0137,-0.0388,9.8181,-0.1964,-0.3663,0.4015,19.4924,-12.5041,-18.1000
17976,0.0111,-0.0654,9.8142,-0.1781,-0.2724,0.4701,19.5406,-12.5315,-18.0722
17984,-0.0027,-0.0927,9.8248,-0.1205,-0.1905,0.4717,19.5886,-12.5588,-18.0444
17992,-0.0088,-0.0905,9.8326,-0.1268,-0.1495,0.5106,19.6393,-12.5878,-18.0163
18000,-0.0029,-0.0662,9.8365,-0.0956,-0.1157,0.5318,19.6882,-12.6167,-17.9891
18008,-0.0158,-0.0214,9.8190,-0.1083,-0.1153,0.4028,19.7394,-12.6478,-17.9621
18016,-0.0179,-0.1011,9.8461,-0.1391,-0.2510,0.3807,19.7855,-12.6797,-17.9328
18024,-0.0111,-0.0608,9.8432,-0.1340,-0.2767,0.3543,19.8315,-12.7114,-17.9036
18032,-0.0023,-0.0603,9.8242,-0.1450,-0.2400,0.3450,19.8834,-12.7421,-17.8735
18040,-0.0207,-0.0666,9.8225,-0.0783,-0.0635,0.2934,19.9284,-12.7669,-17.8487
18048,-0.0255,-0.1029,9.8054,-0.1131,-0.0628,0.2495,19.9732,-12.7915,-17.8240
18056,-0.0280,-0.0715,9.8128,-0.0371,-0.0167,0.2341,20.0221,-12.8203,-17.7975
18064,-0.0212,-0.1474,9.8194,-0.0364,0.0326,0.2727,20.0708,-12.8490,-17.7710
18072,-0.0191,-0.1459,9.7927,0.0229,0.0425,0.3737,20.1193,-12.8775,-17.7447
18080,-0.0109,-0.1587,9.7958,0.0290,0.0706,0.5049,20.1651,-12.9073,-17.7151
18088,-0.0244,-0.1443,9.7886,0.0055,0.0122,0.5930,20.2132,-12.9393,-17.6889
18096,-0.0334,-0.1463,9.7770,0.0123,0.0069,0.7066,20.2596,-12.9674,-17.6628
18104,-0.0247,-0.1353,9.7812,0.0989,-0.0327,0.8472,20.3058,-12.9953,-17.6368
18112,-0.0228,-0.1660,9.7872,0.0456,-0.0653,0.9790,20.3508,-13.0222,-17.6061
18120,-0.0251,-0.1523,9.7849,0.0294,-0.0432,1.0464,20.3928,-13.0480,-17.5774
18128,0.0060,-0.1672,9.7897,0.0565,-0.0727,1.3082,20.4398,-13.0755,-17.5507
18136,0.0183,-0.1114,9.7803,0.0318,-0.0049,1.3665,20.4866,-13.1029,-17.5241
18144,0.0138,-0.0997,9.7696,-0.0052,0.0040,1.5263,20.5332,-13.1302,-17.4975
18152,0.0253,-0.0987,9.7749,-0.0352,0.0791,1.4417,20.5768,-13.1592,-17.4659
