Timestamp_ms,AccX_Filt,AccY_Filt,AccZ_Filt,GyrX_Filt,GyrY_Filt,GyrZ_Filt,MagX_Filt,MagY_Filt,MagZ_Filt
5233,-0.1632,0.0464,9.8416,0.5750,-0.7596,0.6688,3.3750,-59.9400,-59.2650
5240,-0.1090,0.0371,9.7699,0.2416,-0.8832,-1.6127,3.5180,-62.4803,-61.7767
5248,-0.0631,0.0307,9.7732,0.7407,-0.7618,-0.8091,3.4606,-63.5564,-63.5190
5256,-0.0437,0.0262,9.7947,0.7457,-0.0263,-0.7586,3.6779,-64.1304,-64.1052
5264,-0.0470,0.0033,9.8026,0.5762,-0.1013,-0.4570,3.7731,-63.9404,-64.0696
5272,-0.0554,0.0051,9.8106,0.6488,0.2310,-0.4413,3.8308,-63.7566,-63.9404
5280,-0.0529,-0.0082,9.7987,0.7545,0.0943,0.1414,3.8670,-63.5350,-63.7580
5288,-0.0476,-0.0225,9.7792,0.4480,-0.0481,0.0445,3.9082,-63.3275,-63.5244
5296,-0.0518,-0.0222,9.7715,0.4701,-0.0391,0.1386,3.8045,-63.1136,-63.2077
5304,-0.0637,-0.0195,9.7889,0.3463,-0.1928,0.2142,3.7475,-62.9998,-62.8926
5312,-0.0442,-0.0127,9.8022,0.3451,-0.1949,0.3653,3.6976,-62.8514,-62.5792
5320,-0.0493,-0.0108,9.8172,0.2451,-0.1032,0.2555,3.6531,-62.6776,-62.2676
5328,-0.0440,-0.0187,9.8178,0.2629,-0.0508,0.3678,3.6470,-62.4273,-62.0152
5336,-0.0514,-0.0189,9.8220,0.2783,0.2708,0.2029,3.6395,-62.1705,-61.7565
5344,-0.0553,-0.0256,9.8140,0.2135,0.1193,0.3578,3.6802,-61.7996,-61.5925
5352,-0.0532,-0.0121,9.8089,0.2879,0.0471,0.2577,3.7137,-61.4388,-61.4128
5360,-0.0529,-0.0159,9.7937,0.3916,-0.0296,0.1689,3.7413,-61.0867,-61.2205
5368,-0.0569,-0.0076,9.8097,0.3637,-0.0297,0.2343,3.7308,-60.8167,-60.9018
5376,-0.0519,-0.0079,9.8062,0.2918,-0.0493,0.2311,3.7117,-60.5614,-60.6184
5384,-0.0508,-0.0134,9.7993,0.2982,-0.0482,0.4088,3.6331,-60.2813,-60.3353
5392,-0.0479,-0.0183,9.7800,0.3113,-0.0289,0.4319,3.5606,-60.0016,-60.0529
5400,-0.0500,-0.0175,9.7851,0.2451,-0.0149,0.5951,3.4796,-59.7566,-59.7576
5408,-0.0490,-0.0085,9.7837,0.2363,-0.0020,0.5371,3.4825,-59.4768,-59.4318
5416,-0.0459,-0.0096,9.7828,0.1739,0.0303,0.5480,3.4278,-59.1606,-59.1794
5424,-0.0467,-0.0042,9.7857,0.1727,-0.0063,0.6377,3.4899,-58.9024,-58.9020
5432,-0.0383,-0.0034,9.7810,0.2106,-0.0435,0.8089,3.5460,-58.6439,-58.6256
5440,-0.0362,0.0092,9.7813,0.1595,0.0308,0.8242,3.5024,-58.3964,-58.3392
5448,-0.0292,0.0000,9.7839,0.1685,-0.0071,0.7911,3.4500,-58.1267,-58.0709
5456,-0.0308,0.0040,9.7895,0.1676,-0.0239,0.7757,3.4621,-57.8788,-57.7621
5464,-0.0330,0.0132,9.7941,0.1974,-0.0366,0.7337,3.4724,-57.6306,-57.4570
5472,-0.0182,0.0251,9.7904,0.2103,0.0182,0.6337,3.4809,-57.3822,-57.1554
5480,-0.0112,0.0226,9.7971,0.1744,-0.0891,0.5636,3.4458,-57.1293,-56.9087
5488,-0.0153,0.0176,9.7964,0.1287,-0.1130,0.5096,3.4119,-56.8768,-56.6619
5496,-0.0314,0.0103,9.8044,0.0681,-0.1591,0.3380,3.3613,-56.6204,-56.3757
5504,-0.0213,0.0074,9.8153,0.0954,-0.1967,0.2111,3.3128,-56.3650,-56.0920
5512,-0.0154,0.0148,9.8082,0.0459,-0.0732,0.1260,3.2661,-56.1105,-55.8107
5520,-0.0168,0.0243,9.8073,-0.0037,0.0207,0.0971,3.2739,-55.8449,-55.5238
5528,-0.0141,0.0109,9.7983,0.0007,0.0354,0.0898,3.2805,-55.5809,-55.2593
5536,-0.0156,0.0030,9.7997,-0.0548,0.0493,0.0998,3.2398,-55.2955,-55.0197
5544,-0.0102,0.0067,9.7965,-0.0340,-0.0052,0.1038,3.2004,-55.0129,-54.7805
5552,-0.0076,-0.0018,9.8012,0.0139,-0.1020,0.2395,3.1805,-54.7587,-54.5309
5560,-0.0130,-0.0054,9.8078,-0.0134,-0.1855,0.2090,3.1788,-54.5238,-54.2645
5568,-0.0065,-0.0118,9.8106,0.0164,-0.0977,0.2218,3.1415,-54.2475,-54.0176
5576,-0.0211,-0.0162,9.8209,0.0087,-0.0724,0.2257,3.1464,-53.9771,-53.7615
5584,-0.0157,-0.0275,9.8124,-0.0319,-0.0983,0.2459,3.1504,-53.7090,-53.5072
5592,-0.0217,-0.0232,9.8125,-0.0925,-0.1531,0.2955,3.1143,-53.4727,-53.2642
5600,-0.0266,-0.0120,9.8130,-0.0981,-0.1972,0.2905,3.0792,-53.2373,-53.0225
5608,-0.0311,-0.0096,9.8117,-0.0786,-0.2062,0.2336,3.0607,-53.0029,-52.7380
5616,-0.0247,-0.0005,9.8227,-0.0054,-0.1217,0.2287,3.0424,-52.7694,-52.4566
5624,-0.0371,0.0044,9.8168,-0.0475,-0.0822,0.1721,3.0243,-52.5370,-52.1781
5632,-0.0283,0.0007,9.8042,-0.0605,-0.1753,0.1154,2.9916,-52.2968,-51.9676
5640,-0.0281,0.0037,9.7941,-0.0293,-0.1444,0.1511,2.9596,-52.0579,-51.7574
5648,-0.0275,0.0024,9.7818,-0.0837,-0.1910,0.0875,2.9398,-51.8261,-51.5218
5656,-0.0451,0.0039,9.7884,-0.1031,-0.2408,0.0674,2.9370,-51.5618,-51.2988
5664,-0.0455,0.0157,9.7912,-0.1432,-0.2234,-0.0249,2.9339,-51.3000,-51.0767
5672,-0.0487,0.0150,9.7906,-0.0464,-0.2744,0.0168,2.9088,-51.0567,-50.8393
5680,-0.0566,0.0140,9.7855,-0.0673,-0.2609,-0.0864,2.9027,-50.8231,-50.5954
5688,-0.0527,0.0103,9.7958,-0.0900,-0.1672,-0.0987,2.8860,-50.5935,-50.3429
5696,-0.0579,0.0106,9.7884,-0.1467,-0.1046,-0.1967,2.8823,-50.3601,-50.1182
5704,-0.0453,0.0085,9.7917,-0.1417,-0.1175,-0.2849,2.8783,-50.1282,-49.8946
5712,-0.0531,-0.0006,9.7996,-0.1853,-0.1810,-0.2588,2.8542,-49.9201,-49.6698
5720,-0.0477,-0.0111,9.8059,-0.2215,-0.1637,-0.2554,2.8573,-49.6907,-49.4364
5728,-0.0448,-0.0119,9.8089,-0.1890,-0.2760,-0.2521,2.8600,-49.4628,-49.2047
5736,-0.0475,-0.0027,9.8066,-0.2572,-0.2572,-0.1819,2.8552,-49.2363,-48.9744
5744,-0.0523,0.0043,9.7945,-0.2715,-0.2956,-0.2141,2.8501,-49.0042,-48.7411
5752,-0.0516,-0.0012,9.7971,-0.2582,-0.3028,-0.1537,2.8448,-48.7737,-48.5094
5760,-0.0442,-0.0117,9.8010,-0.2161,-0.2480,-0.1281,2.8394,-48.5630,-48.2953
5768,-0.0429,-0.0184,9.7935,-0.1652,-0.3161,-0.1224,2.8338,-48.3533,-48.0822
5776,-0.0404,-0.0236,9.8031,-0.0950,-0.3036,-0.0982,2.8281,-48.1447,-47.8704
5784,-0.0345,-0.0228,9.7904,-0.0682,-0.3024,-0.1875,2.7961,-47.9414,-47.6553
5792,-0.0387,-0.0276,9.7921,0.0057,-0.3574,-0.1284,2.7754,-47.7176,-47.4522
5800,-0.0365,-0.0086,9.7891,-0.0174,-0.2040,-0.1548,2.7592,-47.5059,-47.2225
5808,-0.0301,-0.0134,9.7932,0.0087,-0.1296,-0.0971,2.7432,-47.2850,-47.0113
5816,-0.0265,-0.0177,9.7919,-0.1053,-0.0798,-0.0180,2.7273,-47.0656,-46.8013
5824,-0.0251,-0.0147,9.7821,-0.0700,-0.1927,0.0872,2.6973,-46.8680,-46.5965
5832,-0.0220,-0.0161,9.7873,-0.0898,-0.2418,0.0593,2.6759,-46.6593,-46.3949
5840,-0.0251,-0.0224,9.7866,-0.0231,-0.2325,0.0488,2.6488,-46.4458,-46.2103
5848,-0.0247,-0.0227,9.7932,0.0219,-0.3253,-0.0067,2.6378,-46.2396,-46.0164
5856,-0.0800,-0.0042,9.7938,0.1077,-0.3124,0.0497,2.6268,-46.0346,-45.8235
5864,-0.1468,-0.0035,9.8070,0.0883,-0.2547,0.0903,2.6197,-45.8212,-45.6124
5872,-0.1581,0.0114,9.8067,0.0296,-0.1889,0.1078,2.6125,-45.6282,-45.4309
5880,-0.1619,0.0061,9.8055,0.0403,-0.1766,-0.0838,2.6052,-45.4361,-45.2502
5888,-0.1622,0.0204,9.7985,0.0771,-0.1569,-0.2002,2.5942,-45.2412,-45.0554
5896,-0.1506,0.0075,9.8072,0.1097,-0.1835,-0.3195,2.5833,-45.0474,-44.8616
5904,-0.1319,0.0085,9.8064,0.1249,-0.2596,-0.4709,2.5723,-44.8547,-44.6688
5912,-0.1533,-0.0138,9.7970,0.2248,-0.2923,-0.5570,2.5632,-44.6469,-44.4753
5920,-0.1457,-0.0204,9.7890,0.2376,-0.2569,-0.7488,2.5541,-44.4405,-44.2829
5928,-0.1375,0.0029,9.7817,0.2551,-0.1803,-0.7666,2.5432,-44.2512,-44.0898
5936,-0.0668,0.0185,9.7902,0.2586,-0.2378,-0.7917,2.5324,-44.0628,-43.8978
5944,-0.1207,-0.0194,9.7755,0.3233,-0.2902,-0.7330,2.5182,-43.8807,-43.7051
5952,-0.0944,-0.0254,9.7905,0.2570,-0.1935,-0.7569,2.5041,-43.6875,-43.5170
5960,-0.1061,-0.0162,9.7876,0.2230,-0.2745,-0.6464,2.4800,-43.4972,-43.3282
5968,-0.1796,-0.0221,9.8078,0.2039,-0.2292,-0.6447,2.4563,-43.3080,-43.1405
5976,-0.2661,-0.0269,9.7737,0.1882,-0.2952,-0.6484,2.4477,-43.1264,-42.9440
5984,-0.2715,-0.0062,9.7889,0.1252,-0.1823,-0.5907,2.4406,-42.9311,-42.7504
5992,-0.2955,-0.0139,9.8130,0.1050,-0.2718,-0.4554,2.4256,-42.7403,-42.5821
6000,-0.2307,-0.0045,9.8126,0.1444,-0.2559,-0.3474,2.4090,-42.5491,-42.3922
6008,-0.2404,-0.0092,9.7908,0.2140,-0.4088,-0.1027,2.3926,-42.3590,-42.2035
6016,-0.2500,-0.0006,9.7920,0.1873,-0.3763,-0.0101,2.3764,-42.1702,-42.0159
6024,-0.2488,-0.0116,9.7904,0.1750,-0.3212,0.0330,2.3557,-41.9824,-41.8418
6032,-0.1902,-0.0316,9.7680,0.1926,-0.3139,0.1997,2.3352,-41.7958,-41.6686
6040,-0.1477,-0.0514,9.7404,0.1988,-0.2135,0.3457,2.3287,-41.6241,-41.4978
6048,-0.1362,-0.0703,9.7496,0.2661,-0.2669,0.3893,2.3221,-41.4531,-41.3279
6056,-0.1648,-0.0810,9.7497,0.2157,-0.2806,0.5804,2.3154,-41.2831,-41.1588
6064,-0.1562,-0.0793,9.7708,0.2209,-0.3764,0.8165,2.3029,-41.1050,-40.9846
6072,-0.1329,-0.0910,9.7826,0.1938,-0.3827,1.0582,2.2963,-40.9338,-40.8070
6080,-0.0977,-0.0925,9.7800,0.1866,-0.4900,1.3053,2.2838,-40.7679,-40.6319
6088,-0.1022,-0.0651,9.7886,0.1451,-0.3926,1.4617,2.2715,-40.6028,-40.4577
6096,-0.0850,-0.0444,9.7901,0.1827,-0.4942,1.6191,2.2621,-40.4342,-40.2831
6104,-0.0807,-0.0467,9.7699,0.1653,-0.3273,1.5857,2.2541,-40.2425,-40.1209
6112,-0.1083,-0.0332,9.7818,0.1673,-0.2637,1.4551,2.2391,-40.0732,-39.9594
6120,-0.1119,-0.0406,9.7985,0.1746,-0.2162,1.4395,2.2452,-39.9090,-39.7917
6128,-0.0928,-0.0328,9.7944,0.1896,-0.1814,1.6166,2.2510,-39.7457,-39.6250
6136,-0.0636,-0.0270,9.8057,0.2892,-0.1216,1.6127,2.2456,-39.5791,-39.4591
6144,-0.0623,0.0014,9.8065,0.3099,-0.0510,1.7795,2.2402,-39.4135,-39.2942
6152,-0.0493,0.0108,9.8271,0.3109,-0.0901,1.7871,2.2321,-39.2461,-39.1274
6160,-0.0275,-0.0172,9.8231,0.3412,-0.0769,1.8503,2.2240,-39.0797,-38.9616
6168,-0.0369,-0.0394,9.8098,0.2449,0.0024,1.9562,2.2159,-38.9142,-38.7966
6176,-0.0354,-0.0111,9.8011,0.1502,0.0196,1.8093,2.2210,-38.7629,-38.6550
6184,-0.0637,0.0112,9.8008,0.1475,-0.0093,1.9143,2.2259,-38.6123,-38.5139
6192,-0.1056,0.0233,9.8043,0.1050,-0.0343,1.8146,2.2202,-38.4430,-38.3409
6200,-0.0917,0.0333,9.8229,0.1150,-0.0982,1.7486,2.2145,-38.2746,-38.1689
6208,-0.1328,0.0428,9.8325,0.0659,0.0274,1.6456,2.2011,-38.1278,-38.0031
6216,-0.1035,0.0454,9.8138,0.0750,-0.0418,1.5123,2.1993,-37.9702,-37.8395
6224,-0.1271,0.0050,9.7923,0.0436,0.0679,1.3262,2.2112,-37.8123,-37.6793
6232,-0.1207,-0.0051,9.7838,0.0590,0.0556,1.1456,2.2090,-37.6539,-37.5275
6240,-0.1121,-0.0102,9.7825,0.0337,0.0944,0.8956,2.2067,-37.4964,-37.3765
6248,-0.0885,-0.0298,9.7759,0.0255,0.0729,0.9685,2.1920,-37.3423,-37.2287
6256,-0.0930,-0.0394,9.7963,0.0203,-0.0383,0.8569,2.1860,-37.1866,-37.0852
6264,-0.1463,-0.0462,9.8070,0.0287,-0.1927,0.8941,2.1763,-37.0293,-36.9315
6272,-0.1011,-0.0241,9.8121,0.0021,-0.2523,0.8924,2.1666,-36.8729,-36.7786
6280,-0.1031,0.0346,9.8173,0.0459,-0.2907,0.8428,2.1569,-36.7174,-36.6264
6288,-0.1308,0.0184,9.8255,0.0745,-0.2047,0.7153,2.1663,-36.5652,-36.4703
6296,-0.1828,-0.0335,9.8039,0.1232,-0.1704,0.6388,2.1755,-36.4138,-36.3151
6304,-0.1601,0.0065,9.8143,0.0631,-0.1510,0.6535,2.1739,-36.2608,-36.1572
6312,-0.1556,-0.0166,9.7937,0.0216,-0.0231,0.6944,2.1721,-36.1088,-36.0002
6320,-0.1474,-0.0146,9.7746,-0.0261,0.0005,0.9147,2.1703,-35.9576,-35.8441
6328,-0.0807,-0.0188,9.7856,0.0403,-0.0756,0.9094,2.1626,-35.8141,-35.6912
6336,-0.1210,-0.0349,9.7795,0.0558,-0.0950,1.0724,2.1675,-35.6577,-35.5437
6344,-0.1425,-0.0253,9.7773,0.0733,-0.0789,1.1349,2.1666,-35.5192,-35.3993
6352,-0.1565,-0.0107,9.7866,0.0101,-0.0422,1.3280,2.1656,-35.3815,-35.2556
6360,-0.1031,0.0003,9.7896,0.0162,-0.0257,1.4673,2.1521,-35.2410,-35.1137
6368,-0.0930,-0.0313,9.7955,-0.0205,-0.0953,1.5312,2.1543,-35.1046,-34.9659
6376,-0.1121,-0.0352,9.7981,0.0056,-0.1725,1.5870,2.1520,-34.9567,-34.8178
6384,-0.0948,-0.0042,9.7840,0.0733,-0.2037,1.6136,2.1540,-34.8196,-34.6771
6392,-0.0569,0.0025,9.7905,-0.0273,-0.2602,1.6338,2.1559,-34.6831,-34.5371
6400,-0.0553,0.0295,9.8099,-0.0115,-0.3035,1.6984,2.1577,-34.5473,-34.4087
6408,-0.0653,0.0626,9.8175,-0.0044,-0.2969,1.5415,2.1561,-34.4123,-34.2733
6416,-0.0529,0.0123,9.8203,-0.0349,-0.2000,1.4528,2.1544,-34.2638,-34.1440
6424,-0.0544,-0.0090,9.7850,-0.0721,-0.1500,1.1840,2.1527,-34.1163,-34.0152
6432,-0.1014,-0.0843,9.7649,-0.0010,-0.1688,1.1643,2.1509,-33.9695,-33.8871
6440,-0.1721,-0.0663,9.8096,0.1070,-0.1548,1.3748,2.1544,-33.8237,-33.7489
6448,-0.1090,-0.0351,9.8209,0.1622,-0.2214,1.4614,2.1577,-33.6786,-33.6114
6456,-0.1753,-0.0710,9.8579,0.1991,-0.2851,1.5575,2.1472,-33.5333,-33.4809
6464,-0.1124,-0.0425,9.9083,0.2023,-0.3034,1.5801,2.1368,-33.3889,-33.3511
6472,-0.1925,-0.0363,9.8455,0.2027,-0.3075,1.7084,2.1265,-33.2453,-33.2218
6480,-0.1152,-0.0393,9.8675,0.2565,-0.2581,1.8071,2.1090,-33.1087,-33.0871
6488,-0.1258,-0.0129,9.8601,0.2838,-0.3042,1.8188,2.1049,-32.9759,-32.9529
6496,-0.0836,-0.0254,9.8579,0.1900,-0.3616,1.7500,2.1121,-32.8418,-32.8257
6504,-0.0776,-0.0272,9.8618,0.2283,-0.3872,1.9055,2.1191,-32.7084,-32.6990
6512,-0.0950,-0.0165,9.8299,0.2196,-0.4676,1.9156,2.1219,-32.5777,-32.5789
6520,-0.1541,-0.0009,9.8370,0.1713,-0.4726,2.0265,2.1215,-32.4456,-32.4504
6528,-0.2047,-0.0574,9.8352,0.0691,-0.4026,1.8900,2.1211,-32.3093,-32.3205
6536,-0.1504,-0.0520,9.8399,0.0140,-0.3757,1.9194,2.1236,-32.1807,-32.1953
6544,-0.1814,-0.0326,9.8401,0.0866,-0.4247,2.0622,2.1260,-32.0527,-32.0706
6552,-0.2354,-0.0155,9.8485,-0.0465,-0.4795,2.1427,2.1284,-31.9254,-31.9465
6560,-0.2173,-0.0214,9.8046,-0.0299,-0.3746,2.0944,2.1306,-31.7988,-31.8231
6568,-0.2036,-0.0149,9.8696,-0.0646,-0.4049,2.0482,2.1356,-31.6728,-31.6953
6576,-0.2291,-0.0714,9.8633,-0.1539,-0.5032,2.0787,2.1405,-31.5475,-31.5683
6584,-0.2175,-0.0984,9.8162,-0.1539,-0.3573,2.0598,2.1453,-31.4227,-31.4418
6592,-0.1742,-0.0960,9.7950,-0.0979,-0.3350,2.0311,2.1414,-31.3025,-31.3074
6600,-0.1624,-0.1248,9.8773,-0.0897,-0.2391,2.0117,2.1374,-31.1829,-31.1736
6608,-0.1973,-0.1704,9.9086,-0.1378,-0.1900,2.1824,2.1334,-31.0581,-31.0615
6616,-0.1655,-0.1811,9.9004,-0.1438,-0.1964,2.1591,2.1398,-30.9330,-30.9424
6624,-0.0611,-0.1326,9.9081,-0.1283,-0.0879,2.1340,2.1461,-30.8086,-30.8238
6632,-0.1302,-0.1305,9.9004,-0.1534,-0.0614,2.0834,2.1447,-30.6914,-30.6954
6640,-0.1244,-0.0713,9.8780,-0.0547,-0.0308,2.0324,2.1470,-30.5719,-30.5808
6648,-0.1082,-0.1256,9.8741,-0.0431,0.0172,1.8636,2.1455,-30.4503,-30.4649
6656,-0.1719,-0.1366,9.8510,0.0214,0.2123,1.8675,2.1440,-30.3321,-30.3449
6664,-0.1211,-0.1114,9.9176,-0.0956,0.3083,1.8525,2.1424,-30.2144,-30.2254
6672,-0.1417,-0.1063,9.9227,-0.0555,0.3095,1.9396,2.1426,-30.1019,-30.1084
6680,-0.1088,-0.1587,9.8917,0.0122,0.3426,1.9935,2.1363,-29.9854,-29.9902
6688,-0.0659,-0.1405,9.8811,0.0530,0.2409,2.0477,2.1301,-29.8694,-29.8725
6696,-0.0602,-0.1646,9.8828,-0.0627,0.1863,1.8542,2.1239,-29.7541,-29.7554
6704,-0.0164,-0.1454,9.8830,0.0879,0.1634,1.6638,2.1329,-29.6420,-29.6388
6712,-0.0055,-0.1362,9.8623,0.1334,0.2162,1.5458,2.1418,-29.5304,-29.5229
6720,-0.0088,-0.1548,9.8508,0.1875,0.2160,1.4889,2.1408,-29.4176,-29.4155
6728,0.0064,-0.1292,9.8180,0.3245,0.2532,1.4745,2.1396,-29.3053,-29.3086
6736,0.0229,-0.1111,9.7684,0.3810,0.2301,1.2634,2.1384,-29.1936,-29.2022
6744,0.0415,-0.0856,9.7635,0.4509,0.3600,1.2803,2.1424,-29.0842,-29.0927
6752,0.0173,-0.0070,9.7487,0.3471,0.3055,1.1337,2.1367,-28.9762,-28.9741
6760,0.0300,-0.0182,9.7776,0.4612,0.2801,1.1481,2.1353,-28.8704,-28.8605
6768,0.0356,-0.0489,9.7983,0.4263,0.3385,1.1433,2.1356,-28.7590,-28.7474
6776,0.0207,-0.0407,9.7979,0.4383,0.2316,1.0961,2.1359,-28.6482,-28.6349
6784,-0.0106,-0.0201,9.7921,0.4710,0.2441,1.1548,2.1352,-28.5302,-28.5324
6792,-0.0235,0.0241,9.7804,0.6517,0.2720,1.1257,2.1405,-28.4213,-28.4277
6800,-0.0538,0.0417,9.7284,0.5125,0.2161,1.1059,2.1430,-28.3165,-28.3167
6808,-0.0379,0.0062,9.7301,0.5207,0.2933,1.0789,2.1455,-28.2078,-28.2165
6816,-0.1657,0.0251,9.6920,0.5018,0.2710,1.1198,2.1480,-28.0997,-28.1167
6824,-0.1447,0.0245,9.6644,0.4012,-0.1102,1.1962,2.1503,-27.9921,-28.0174
6832,-0.1279,0.0038,9.6794,0.3796,-0.1761,1.2080,2.1475,-27.8900,-27.9134
6840,-0.0913,0.0703,9.6744,0.5296,-0.1004,1.1499,2.1446,-27.7885,-27.8099
6848,-0.0733,0.0380,9.6603,0.5477,-0.1054,1.0996,2.1518,-27.6807,-27.7027
6856,-0.0059,0.0320,9.6689,0.5330,0.0445,1.1156,2.1589,-27.5734,-27.5959
6864,-0.0916,0.0175,9.6926,0.4390,-0.1455,1.1522,2.1658,-27.4667,-27.4897
6872,-0.0481,-0.0084,9.7123,0.2850,-0.0339,1.2059,2.1643,-27.3630,-27.3882
6880,-0.0469,0.0160,9.7255,0.2818,-0.1404,1.3852,2.1595,-27.2589,-27.2838
6888,-0.0485,-0.0016,9.7384,0.2308,-0.2184,1.2634,2.1629,-27.1488,-27.1782
6896,-0.0309,-0.0553,9.7706,0.3500,-0.2662,1.1895,2.1662,-27.0392,-27.0732
6904,-0.0500,-0.0824,9.7733,0.2426,-0.3413,1.2949,2.1597,-26.9383,-26.9768
6912,-0.0445,-0.0546,9.7475,0.2119,-0.4264,1.2756,2.1596,-26.8347,-26.8833
6920,-0.0614,-0.0650,9.7861,0.1666,-0.4438,1.2893,2.1563,-26.7259,-26.7821
6928,-0.0758,-0.0056,9.7518,0.1526,-0.3698,1.3769,2.1529,-26.6176,-26.6813
6936,-0.0738,-0.0066,9.7544,0.1419,-0.3576,1.2928,2.1503,-26.5131,-26.5802
6944,-0.0602,-0.0083,9.7518,0.1076,-0.3754,1.2843,2.1597,-26.4107,-26.4820
6952,-0.0241,-0.0208,9.7576,0.1202,-0.3657,1.1509,2.1690,-26.3088,-26.3842
6960,-0.0320,0.0011,9.7784,0.1348,-0.4204,1.2046,2.1701,-26.2074,-26.2909
6968,-0.1180,-0.0251,9.7881,0.2102,-0.3607,1.2213,2.1712,-26.1064,-26.1979
6976,-0.1393,-0.0241,9.7800,0.2530,-0.3304,1.0773,2.1722,-26.0060,-26.1054
6984,-0.1253,0.0068,9.7923,0.2618,-0.4240,1.1076,2.1653,-25.9123,-26.0093
6992,-0.1346,0.0192,9.7961,0.1850,-0.2921,0.9445,2.1583,-25.8190,-25.9137
7000,-0.0933,0.0506,9.7376,0.2075,-0.3661,0.7940,2.1616,-25.7192,-25.8153
7008,-0.1106,0.0488,9.7334,0.1144,-0.3754,0.5806,2.1647,-25.6198,-25.7175
7016,-0.0916,0.0304,9.7155,0.0626,-0.4297,0.4406,2.1639,-25.5209,-25.6216
7024,-0.0462,0.0516,9.7211,0.0052,-0.4630,0.2881,2.1646,-25.4232,-25.5238
7032,0.0177,0.0848,9.7185,0.0036,-0.4895,0.2782,2.1698,-25.3214,-25.4257
7040,-0.0325,0.0311,9.6647,-0.0087,-0.5494,0.3354,2.1672,-25.2216,-25.3335
7048,-0.0082,0.0704,9.6865,0.0090,-0.6895,0.4302,2.1647,-25.1222,-25.2417
7056,-0.0067,0.1033,9.6758,-0.0648,-0.6207,0.4461,2.1674,-25.0272,-25.1518
7064,-0.0030,0.1293,9.6579,-0.0074,-0.5629,0.2826,2.1640,-24.9304,-25.0638
7072,-0.0130,0.1543,9.6408,-0.0911,-0.5157,0.1103,2.1613,-24.8309,-24.9709
7080,0.0550,0.1432,9.6517,-0.1045,-0.4572,0.0629,2.1593,-24.7350,-24.8815
7088,0.1726,0.1741,9.6725,-0.0133,-0.4173,0.0602,2.1573,-24.6395,-24.7924
7096,0.1323,0.1388,9.6632,0.0659,-0.4057,0.0203,2.1515,-24.5460,-24.7000
7104,0.0945,0.0895,9.6870,0.2056,-0.2507,0.0835,2.1456,-24.4529,-24.6080
7112,0.1258,0.0567,9.6826,0.2779,-0.2358,0.2026,2.1421,-24.3587,-24.5201
7120,0.0676,-0.0121,9.7164,0.2803,-0.4989,0.2578,2.1385,-24.2650,-24.4326
7128,0.1034,0.0468,9.7357,0.3067,-0.5291,0.3319,2.1349,-24.1717,-24.3455
7136,0.0719,0.0200,9.7130,0.4732,-0.4540,0.3441,2.1312,-24.0826,-24.2551
7144,-0.0025,-0.0194,9.7184,0.4538,-0.4542,0.3131,2.1202,-23.9939,-24.1651
7152,0.0390,0.0147,9.7174,0.5045,-0.4944,0.3501,2.1225,-23.9004,-24.0799
7160,0.0219,0.0483,9.7251,0.4544,-0.6315,0.4549,2.1247,-23.8073,-23.9951
7168,-0.0091,-0.0029,9.7426,0.4945,-0.5679,0.5977,2.1283,-23.7235,-23.9011
7176,-0.0280,-0.0150,9.7771,0.4341,-0.5871,0.6463,2.1260,-23.6379,-23.8127
7184,-0.0893,-0.0442,9.7756,0.4751,-0.5042,0.8128,2.1243,-23.5497,-23.7225
7192,-0.0637,-0.0578,9.7368,0.4609,-0.3902,0.8386,2.1263,-23.4619,-23.6378
7200,-0.1735,-0.0943,9.7190,0.4473,-0.4065,0.8313,2.1283,-23.3746,-23.5534
7208,-0.1486,-0.1032,9.7211,0.3864,-0.3874,0.8644,2.1280,-23.2869,-23.4701
7216,-0.1884,-0.1031,9.7135,0.3601,-0.3932,0.9626,2.1277,-23.1981,-23.3836
7224,-0.1779,-0.1043,9.7375,0.2736,-0.1881,1.1553,2.1273,-23.1054,-23.2961
7232,-0.0915,-0.0526,9.7639,0.2683,-0.1972,1.1848,2.1269,-23.0132,-23.2089
7240,-0.1960,-0.1046,9.7631,0.2285,-0.1740,1.1650,2.1265,-22.9214,-23.1221
7248,-0.1074,-0.0947,9.7551,0.2331,-0.2158,1.0715,2.1238,-22.8265,-23.0372
7256,-0.1197,-0.0608,9.7474,0.2962,-0.1304,1.0647,2.1212,-22.7321,-22.9526
7264,-0.0957,-0.0432,9.7532,0.2978,0.0206,1.0955,2.1207,-22.6495,-22.8705
7272,-0.0786,-0.0479,9.7457,0.3314,-0.0110,1.2530,2.1201,-22.5672,-22.7888
7280,-0.0873,-0.0457,9.7294,0.2942,0.0574,1.2303,2.1195,-22.4853,-22.7074
7288,-0.0591,-0.0182,9.7487,0.2772,0.1842,1.2432,2.1196,-22.4024,-22.6271
7296,-0.0860,-0.0266,9.7385,0.1704,0.1907,1.2449,2.1154,-22.3156,-22.5429
7304,-0.1022,-0.0319,9.7451,0.1189,0.2877,1.4172,2.1189,-22.2321,-22.4584
7312,-0.0899,-0.0030,9.7580,0.1150,0.4524,1.2886,2.1224,-22.1489,-22.3742
7320,-0.1153,-0.0279,9.7441,0.1912,0.5112,1.3870,2.1181,-22.0669,-22.2960
7328,-0.1501,0.0120,9.7297,0.1548,0.5621,1.3770,2.1208,-21.9851,-22.2147
7336,-0.1715,0.0049,9.7531,0.1359,0.5095,1.3942,2.1179,-21.8948,-22.1358
7344,-0.1504,0.0020,9.7466,0.0966,0.4245,1.3706,2.1191,-21.8062,-22.0544
7352,-0.1695,-0.0342,9.7479,0.1977,0.3672,1.5214,2.1203,-21.7181,-21.9735
7360,-0.1463,-0.0238,9.7318,0.1396,0.2938,1.4523,2.1166,-21.6373,-21.8977
7368,-0.1390,-0.0353,9.7564,0.1188,0.2609,1.5328,2.1129,-21.5569,-21.8222
7376,-0.1455,-0.0293,9.7550,0.1442,0.2748,1.7512,2.1085,-21.4829,-21.7429
7384,-0.1291,0.0053,9.7751,0.1445,0.1787,1.7573,2.1041,-21.4093,-21.6640
7392,-0.1353,0.0092,9.7892,0.1634,0.1695,1.8592,2.0997,-21.3361,-21.5854
7400,-0.1162,-0.0004,9.8165,0.1736,0.1474,1.9379,2.0954,-21.2508,-21.5037
7408,-0.1035,0.0342,9.8021,0.2686,0.1369,1.9919,2.0910,-21.1660,-21.4224
7416,-0.1135,0.0049,9.8132,0.2794,0.2335,1.8302,2.0934,-21.0850,-21.3415
7424,-0.1325,0.0089,9.7936,0.3565,0.1766,1.7556,2.0957,-21.0043,-21.2609
7432,-0.1670,-0.0153,9.7813,0.3528,0.1621,1.5722,2.0906,-20.9247,-21.1847
7440,-0.1048,-0.0249,9.7821,0.3813,0.3537,1.4128,2.0881,-20.8441,-21.1122
7448,-0.0664,-0.0449,9.7695,0.3926,0.3128,1.3111,2.0877,-20.7652,-21.0400
7456,-0.0252,-0.0704,9.7459,0.3980,0.3137,1.2271,2.0866,-20.6860,-20.9674
7464,-0.0161,-0.0870,9.7509,0.4326,0.3546,1.1015,2.0854,-20.6071,-20.8951
7472,-0.0157,-0.0838,9.7459,0.3829,0.3457,1.1201,2.0843,-20.5266,-20.8232
7480,-0.0149,-0.0436,9.7701,0.4021,0.3986,1.2445,2.0930,-20.4518,-20.7415
7488,-0.0310,-0.0150,9.7778,0.4845,0.4144,1.2915,2.0891,-20.3766,-20.6695
7496,-0.0264,-0.0091,9.7789,0.5339,0.5229,1.3017,2.0852,-20.3018,-20.5978
7504,-0.0532,-0.0261,9.7854,0.4665,0.4267,1.4075,2.0812,-20.2273,-20.5264
7512,-0.0251,-0.0123,9.7862,0.4313,0.5453,1.2767,2.0818,-20.1545,-20.4520
7520,-0.0175,0.0024,9.8093,0.4698,0.3787,1.2769,2.0824,-20.0820,-20.3780
7528,0.0501,0.0244,9.8128,0.5385,0.3528,1.1811,2.0810,-20.0111,-20.3003
7536,-0.0228,0.0211,9.8243,0.6255,0.4480,1.1029,2.0795,-19.9405,-20.2229
7544,0.0457,0.0026,9.8223,0.5115,0.3630,1.0200,2.0780,-19.8702,-20.1459
7552,0.0571,0.0100,9.8437,0.3997,0.4417,0.9222,2.0778,-19.7983,-20.0757
7560,0.0255,-0.0370,9.7989,0.3728,0.5410,0.8419,2.0743,-19.7286,-20.0039
7568,-0.0236,-0.0209,9.7825,0.2565,0.5160,0.7278,2.0695,-19.6559,-19.9401
7576,0.0254,-0.0167,9.8105,0.3238,0.3694,0.7734,2.0698,-19.5823,-19.8650
7584,0.0187,-0.0352,9.8076,0.4416,0.3065,0.9449,2.0701,-19.5090,-19.7901
7592,-0.0070,-0.0170,9.8218,0.4742,0.2357,1.1810,2.0704,-19.4361,-19.7201
7600,-0.0060,-0.0027,9.8169,0.5054,0.2693,1.2947,2.0661,-19.3634,-19.6504
7608,-0.0070,0.0366,9.8119,0.4739,0.2002,1.4995,2.0625,-19.2872,-19.5855
7616,-0.0316,0.0385,9.8207,0.3265,0.1660,1.5220,2.0678,-19.2184,-19.5164
7624,-0.0416,0.0671,9.8045,0.4281,0.1494,1.5168,2.0731,-19.1500,-19.4475
7632,-0.0742,0.1007,9.8076,0.3094,0.2055,1.4079,2.0783,-19.0817,-19.3790
7640,-0.0733,0.1088,9.7799,0.2571,0.1871,1.2344,2.0764,-19.0132,-19.3088
7648,-0.0879,0.1384,9.7922,0.2098,0.1189,0.8791,2.0745,-18.9449,-19.2389
7656,-0.0716,0.1306,9.8042,0.2552,-0.1117,0.6648,2.0725,-18.8770,-19.1692
7664,-0.0722,0.0935,9.7941,0.4160,-0.0149,0.5984,2.0680,-18.8036,-19.1006
7672,-0.1357,0.0809,9.7900,0.4071,0.0031,0.5723,2.0635,-18.7305,-19.0322
7680,-0.1066,0.0786,9.8023,0.3052,0.0549,0.5527,2.0679,-18.6635,-18.9647
7688,-0.0994,0.0951,9.8470,0.2931,-0.0156,0.4352,2.0658,-18.5935,-18.9025
7696,-0.0382,0.0965,9.8816,0.3456,-0.0163,0.5363,2.0638,-18.5239,-18.8406
7704,0.0236,0.0849,9.8851,0.3691,0.0951,0.2195,2.0623,-18.4552,-18.7745
7712,0.0466,0.0699,9.8742,0.4769,0.0175,0.1700,2.0647,-18.3830,-18.7144
7720,0.0192,0.0559,9.8520,0.4173,0.0260,0.0613,2.0644,-18.3181,-18.6519
7728,0.0295,0.0459,9.8711,0.4857,0.0395,0.0747,2.0704,-18.2459,-18.5948
7736,0.0743,0.0415,9.8965,0.4017,0.0124,0.0608,2.0763,-18.1740,-18.5378
7744,0.0019,0.0392,9.8850,0.2867,-0.0135,0.0635,2.0759,-18.1037,-18.4730
7752,0.0038,0.0158,9.8731,0.2675,0.0763,0.0875,2.0718,-18.0380,-18.4096
7760,0.0247,0.0097,9.8601,0.3637,0.0983,-0.0123,2.0714,-17.9670,-18.3546
7768,0.0226,-0.0264,9.8657,0.3651,0.2926,0.1857,2.0709,-17.8963,-18.2905
7776,0.0339,-0.0190,9.8607,0.5237,0.2758,0.2923,2.0704,-17.8260,-18.2267
7784,0.0077,-0.0205,9.8507,0.5101,0.1503,0.3382,2.0699,-17.7559,-18.1631
7792,0.0118,-0.0368,9.8285,0.3584,0.2197,0.3421,2.0719,-17.6960,-18.1010
7800,-0.0077,-0.0740,9.8384,0.2933,0.1634,0.4792,2.0738,-17.6364,-18.0391
7808,0.0092,-0.0789,9.8264,0.1484,-0.0505,0.5783,2.0720,-17.5733,-17.9825
7816,0.0377,-0.1002,9.8065,0.2819,0.0703,0.8438,2.0701,-17.5105,-17.9260
7824,0.0590,-0.1039,9.8103,0.2841,0.0445,1.1083,2.0744,-17.4491,-17.8685
7832,0.0701,-0.1110,9.8311,0.3343,0.1265,1.4652,2.0670,-17.3825,-17.8088
7840,0.1516,-0.1037,9.8440,0.3130,0.1196,1.7612,2.0608,-17.3156,-17.7517
7848,0.2066,-0.0876,9.8379,0.2339,0.1663,2.1269,2.0547,-17.2490,-17.6949
7856,0.1781,-0.1085,9.8556,0.3263,0.2430,2.2766,2.0486,-17.1844,-17.6426
7864,0.2002,-0.0892,9.8488,0.3613,0.1350,2.4624,2.0448,-17.1214,-17.5844
7872,0.2142,-0.0689,9.8313,0.3441,-0.0323,2.6774,2.0430,-17.0586,-17.5282
7880,0.2328,-0.0433,9.8218,0.4156,-0.2083,2.9497,2.0392,-17.0009,-17.4662
7888,0.2533,-0.0425,9.8169,0.4067,-0.2005,2.9035,2.0355,-16.9435,-17.4044
7896,0.2809,-0.0404,9.8261,0.3982,-0.2545,3.0619,2.0366,-16.8814,-17.3441
7904,0.3219,-0.0580,9.8495,0.3954,-0.2581,3.1360,2.0377,-16.8184,-17.2888
7912,0.3361,-0.0503,9.8264,0.4354,-0.1335,3.3003,2.0388,-16.7557,-17.2338
7920,0.3641,-0.0543,9.8284,0.4309,-0.1770,3.3960,2.0350,-16.6992,-17.1789
7928,0.3712,-0.0606,9.8370,0.5040,-0.0720,3.3809,2.0312,-16.6430,-17.1243
7936,0.3685,-0.0850,9.8365,0.3286,-0.1929,3.5717,2.0274,-16.5870,-17.0699
7944,0.3678,-0.0715,9.8293,0.3022,-0.2419,3.6476,2.0236,-16.5252,-17.0097
7952,0.3563,-0.0840,9.8446,0.3462,-0.1687,3.6641,2.0198,-16.4637,-16.9497
7960,0.3286,-0.0720,9.8507,0.3670,-0.0933,3.7013,2.0190,-16.3995,-16.8942
7968,0.3300,-0.0434,9.8608,0.3122,-0.0827,3.6781,2.0182,-16.3355,-16.8388
7976,0.2688,-0.0384,9.8504,0.3265,-0.0991,3.6133,2.0138,-16.2735,-16.7801
7984,0.2631,-0.0207,9.8505,0.3349,-0.0481,3.5087,2.0171,-16.2166,-16.7288
7992,0.2479,0.0162,9.8474,0.3188,-0.0767,3.4060,2.0120,-16.1593,-16.6711
8000,0.2059,0.0383,9.8305,0.3515,-0.1734,3.2118,2.0129,-16.1005,-16.6155
8008,0.1943,0.0309,9.8357,0.2920,-0.1592,2.9274,2.0138,-16.0419,-16.5600
8016,0.2039,0.0452,9.8212,0.3685,-0.1537,2.8314,2.0182,-15.9859,-16.5083
8024,0.1925,0.0426,9.8141,0.4150,-0.1750,2.4063,2.0155,-15.9272,-16.4557
8032,0.1680,0.0234,9.8003,0.4782,-0.1687,2.1358,2.0127,-15.8670,-16.4032
8040,0.1377,0.0302,9.8011,0.5092,-0.1761,1.9625,2.0100,-15.8070,-16.3509
8048,0.1363,0.0445,9.8141,0.5148,-0.0471,1.7621,2.0072,-15.7472,-16.2988
8056,0.1313,0.0229,9.8177,0.5203,-0.0171,1.6424,2.0109,-15.6901,-16.2458
8064,0.1032,0.0101,9.8150,0.4348,0.0276,1.4586,2.0146,-15.6332,-16.1929
8072,0.1218,0.0159,9.8193,0.4837,0.0117,1.3016,2.0106,-15.5735,-16.1432
8080,0.0741,0.0057,9.8046,0.4958,-0.0569,1.1940,2.0067,-15.5141,-16.0936
8088,0.0431,0.0018,9.7909,0.3981,-0.0904,1.1312,2.0027,-15.4550,-16.0443
8096,0.0644,0.0098,9.7880,0.4913,-0.0852,1.0951,1.9975,-15.4008,-15.9893
8104,0.0435,0.0037,9.7899,0.4924,-0.1468,0.9966,1.9953,-15.3438,-15.9333
8112,0.0473,0.0092,9.7903,0.4988,-0.1018,0.9931,1.9954,-15.2877,-15.8782
8120,0.0158,0.0082,9.7756,0.4863,-0.1307,0.9258,1.9955,-15.2318,-15.8232
8128,0.0487,0.0078,9.7747,0.4423,-0.0197,0.7280,1.9880,-15.1732,-15.7702
8136,0.0662,0.0174,9.7884,0.4375,0.0064,0.7122,1.9870,-15.1184,-15.7163
8144,0.0387,0.0243,9.8057,0.4463,-0.0459,0.4811,1.9830,-15.0637,-15.6712
8152,0.0412,0.0042,9.7978,0.3988,-0.0293,0.3748,1.9807,-15.0122,-15.6165
8160,0.0854,0.0041,9.8075,0.3986,0.0346,0.2758,1.9785,-14.9609,-15.5620
8168,0.0757,0.0219,9.8221,0.4064,-0.0110,0.1918,1.9803,-14.9040,-15.5088
8176,0.0975,0.0001,9.8135,0.3686,0.0041,0.1968,1.9861,-14.8467,-15.4570
8184,0.0793,-0.0087,9.8071,0.3804,-0.0161,0.1723,1.9866,-14.7891,-15.4089
8192,0.0634,-0.0161,9.7940,0.4317,0.0152,0.1995,1.9872,-14.7318,-15.3609
8200,0.0558,-0.0151,9.7749,0.3901,0.0798,0.1482,1.9877,-14.6747,-15.3131
8208,0.0617,-0.0024,9.7667,0.4223,0.1416,0.1124,1.9865,-14.6281,-15.2598
8216,0.0757,-0.0027,9.7789,0.3865,0.2434,0.1102,1.9853,-14.5816,-15.2066
8224,0.0637,-0.0140,9.7776,0.3415,0.1220,0.1028,1.9806,-14.5331,-15.1571
8232,0.0333,-0.0159,9.7792,0.3092,0.1286,0.1037,1.9760,-14.4848,-15.1078
8240,0.0559,-0.0218,9.7742,0.2996,0.1056,-0.0794,1.9702,-14.4321,-15.0547
8248,0.0636,-0.0207,9.7838,0.3678,0.1076,-0.2146,1.9701,-14.3750,-15.0075
8256,0.0587,-0.0325,9.7962,0.3156,0.1975,-0.2078,1.9700,-14.3245,-14.9587
8264,0.0716,-0.0195,9.8119,0.2631,0.0782,-0.3266,1.9728,-14.2695,-14.9130
8272,0.0478,-0.0273,9.8093,0.2662,0.0920,-0.4350,1.9755,-14.2148,-14.8674
8280,0.0713,-0.0503,9.8174,0.2371,0.0653,-0.5599,1.9674,-14.1581,-14.8198
8288,0.0675,-0.0370,9.8216,0.1907,0.0184,-0.5567,1.9656,-14.1084,-14.7677
8296,0.0518,-0.0376,9.8003,0.2156,-0.0025,-0.7083,1.9637,-14.0600,-14.7170
8304,0.0444,-0.0369,9.8015,0.1408,-0.0864,-0.7919,1.9585,-14.0112,-14.6728
8312,0.0577,-0.0166,9.7958,0.1093,-0.0467,-0.8319,1.9533,-13.9626,-14.6286
8320,0.0343,-0.0224,9.8070,0.1271,-0.0247,-0.8807,1.9492,-13.9086,-14.5864
8328,0.0212,-0.0072,9.7985,0.1521,-0.0890,-0.9035,1.9452,-13.8548,-14.5443
8336,0.0181,0.0012,9.8040,0.1628,-0.1798,-0.9573,1.9422,-13.8028,-14.4944
8344,0.0312,0.0378,9.8126,0.1916,-0.1733,-1.0113,1.9393,-13.7511,-14.4448
8352,0.0590,0.0387,9.8204,0.2058,-0.1298,-1.0390,1.9364,-13.6996,-14.3953
8360,0.0819,0.0413,9.8329,0.2301,-0.0908,-1.0362,1.9379,-13.6450,-14.3494
8368,0.0726,0.0259,9.8279,0.1920,-0.0909,-1.0708,1.9395,-13.5905,-14.3036
8376,0.0514,0.0233,9.8287,0.1182,-0.0323,-1.0559,1.9371,-13.5419,-14.2553
8384,0.0713,0.0479,9.8236,0.1143,0.0050,-1.1990,1.9347,-13.4935,-14.2071
8392,0.0498,0.0592,9.8295,0.2092,0.0488,-1.2532,1.9334,-13.4452,-14.1635
8400,0.0394,0.0603,9.8174,0.2440,0.1386,-1.3237,1.9315,-13.3966,-14.1207
8408,0.0154,0.0563,9.8202,0.1919,0.1125,-1.2044,1.9258,-13.3465,-14.0780
8416,-0.0031,0.0636,9.8150,0.1261,0.1595,-1.3356,1.9245,-13.2960,-14.0305
8424,-0.0212,0.0474,9.8221,0.1459,0.0445,-1.2745,1.9232,-13.2458,-13.9832
8432,-0.0089,0.0141,9.8222,0.1808,0.1238,-1.3334,1.9175,-13.1951,-13.9343
8440,-0.0019,0.0109,9.8168,0.2382,0.1303,-1.3763,1.9190,-13.1453,-13.8862
8448,0.0131,0.0111,9.8142,0.2263,0.1339,-1.4121,1.9138,-13.0983,-13.8383
8456,0.0258,0.0099,9.8282,0.2391,0.1560,-1.5183,1.9086,-13.0516,-13.7906
8464,0.0081,0.0130,9.8263,0.2272,0.0625,-1.5665,1.9035,-13.0051,-13.7430
8472,0.0058,0.0158,9.8310,0.2185,0.1330,-1.5939,1.8956,-12.9548,-13.6967
8480,0.0169,0.0319,9.8279,0.2556,0.0778,-1.5028,1.8877,-12.9048,-13.6506
8488,0.0096,0.0580,9.8375,0.2003,-0.0150,-1.4450,1.8826,-12.8506,-13.6091
8496,0.0044,0.0528,9.8383,0.2382,-0.0690,-1.4884,1.8776,-12.7966,-13.5677
8504,-0.0131,0.0796,9.8305,0.1730,-0.1527,-1.4179,1.8725,-12.7428,-13.5265
8512,-0.0434,0.0710,9.8152,0.2467,-0.1688,-1.3905,1.8675,-12.6975,-13.4827
8520,-0.0832,0.0600,9.8186,0.2586,-0.2614,-1.5083,1.8624,-12.6523,-13.4363
8528,-0.0937,0.0529,9.8158,0.2085,-0.1714,-1.5410,1.8612,-12.6074,-13.3939
8536,-0.1096,0.0209,9.7969,0.1660,-0.1519,-1.4255,1.8612,-12.5665,-13.3483
8544,-0.1135,-0.0149,9.8021,0.1494,-0.0240,-1.3818,1.8611,-12.5257,-13.3030
8552,-0.1402,-0.0095,9.7872,0.0988,0.1037,-1.3720,1.8555,-12.4835,-13.2633
8560,-0.1449,-0.0091,9.7860,0.1144,0.0684,-1.3519,1.8494,-12.4393,-13.2215
8568,-0.1732,-0.0198,9.7800,0.0787,-0.1146,-1.4100,1.8466,-12.3947,-13.1821
8576,-0.1856,-0.0353,9.7809,0.0045,-0.2070,-1.4363,1.8410,-12.3486,-13.1428
8584,-0.1795,-0.0238,9.7967,0.0482,-0.3700,-1.4028,1.8355,-12.3027,-13.0998
8592,-0.1649,0.0198,9.7878,0.0501,-0.3099,-1.4320,1.8316,-12.2554,-13.0576
8600,-0.1481,0.0629,9.8107,0.0571,-0.3164,-1.4520,1.8218,-12.2115,-13.0198
8608,-0.1697,0.0614,9.8150,0.0559,-0.2266,-1.6551,1.8120,-12.1678,-12.9822
8616,-0.1487,0.0764,9.8212,0.0894,-0.1141,-1.7667,1.8022,-12.1243,-12.9447
8624,-0.1521,0.0709,9.8086,0.0734,-0.0731,-1.8333,1.7968,-12.0826,-12.9052
8632,-0.1683,0.0613,9.7867,0.1488,-0.1460,-1.7691,1.7914,-12.0411,-12.8658
8640,-0.1921,0.0781,9.7893,0.1463,-0.1703,-1.8970,1.7860,-11.9938,-12.8238
8648,-0.1659,0.0752,9.7893,0.2265,-0.1802,-1.8033,1.7861,-11.9526,-12.7804
8656,-0.2177,0.0657,9.7665,0.1805,-0.2911,-1.7724,1.7861,-11.9116,-12.7371
8664,-0.2195,0.0634,9.7860,0.2219,-0.4077,-1.7455,1.7862,-11.8675,-12.6967
8672,-0.1970,0.0746,9.7963,0.1921,-0.3513,-1.7784,1.7808,-11.8209,-12.6554
8680,-0.1734,0.0761,9.8011,0.1690,-0.3640,-1.8686,1.7728,-11.7744,-12.6153
8688,-0.1467,0.0560,9.8018,0.1015,-0.2908,-2.0321,1.7718,-11.7276,-12.5759
8696,-0.1411,0.0332,9.8206,0.0290,-0.3381,-2.0845,1.7708,-11.6811,-12.5366
8704,-0.1338,0.0382,9.8131,0.0690,-0.2714,-2.0333,1.7665,-11.6395,-12.4969
8712,-0.1349,0.0317,9.8108,0.0620,-0.2422,-2.0803,1.7644,-11.5959,-12.4515
8720,-0.1145,0.0104,9.8042,0.1592,-0.2277,-1.9893,1.7602,-11.5520,-12.4121
8728,-0.1120,0.0175,9.7887,0.1908,-0.2564,-2.0169,1.7560,-11.5083,-12.3728
8736,-0.0865,0.0198,9.7915,0.1971,-0.2386,-1.9633,1.7518,-11.4647,-12.3338
8744,-0.1090,0.0060,9.7954,0.1391,-0.1042,-2.0027,1.7476,-11.4214,-12.2948
8752,-0.1275,0.0049,9.7948,0.2009,-0.1624,-2.0110,1.7396,-11.3781,-12.2549
8760,-0.1484,0.0207,9.8029,0.1374,0.0300,-2.0164,1.7317,-11.3351,-12.2152
8768,-0.1249,0.0009,9.8144,0.1193,0.0566,-1.9761,1.7260,-11.2981,-12.1708
8776,-0.1005,0.0158,9.7997,0.1954,0.0901,-2.0443,1.7202,-11.2613,-12.1265
8784,-0.1244,-0.0168,9.8001,0.2601,0.1221,-1.8508,1.7145,-11.2246,-12.0824
8792,-0.0995,-0.0130,9.8063,0.3140,0.0807,-1.7965,1.7104,-11.1848,-12.0433
8800,-0.1189,-0.0502,9.8243,0.2962,0.1318,-1.5526,1.7048,-11.1378,-12.0012
8808,-0.1178,-0.0127,9.8291,0.1725,0.1513,-1.4846,1.6991,-11.0909,-11.9591
8816,-0.0631,0.0039,9.8372,0.2116,0.2047,-1.3663,1.6983,-11.0511,-11.9157
8824,-0.1161,0.0454,9.8399,0.2410,0.1997,-1.4185,1.6910,-11.0046,-11.8739
8832,-0.1125,0.0560,9.8469,0.2370,0.1309,-1.3910,1.6838,-10.9678,-11.8361
8840,-0.1120,0.0815,9.8451,0.2839,0.0811,-1.3835,1.6756,-10.9259,-11.7957
8848,-0.0678,0.0760,9.8457,0.2168,0.0388,-1.4216,1.6673,-10.8841,-11.7555
8856,-0.1012,0.0568,9.8340,0.2486,-0.0442,-1.2420,1.6575,-10.8435,-11.7165
8864,-0.1082,0.0180,9.8643,0.2443,-0.0330,-1.1796,1.6552,-10.8037,-11.6771
8872,-0.1277,-0.0015,9.8567,0.3309,-0.0730,-0.9600,1.6529,-10.7640,-11.6379
8880,-0.0770,-0.0270,9.8499,0.3817,-0.0578,-0.6699,1.6479,-10.7244,-11.5977
8888,-0.0840,0.0137,9.8719,0.4516,-0.1500,-0.5153,1.6430,-10.6850,-11.5577
8896,-0.1086,0.0319,9.8663,0.6305,0.0952,-0.2393,1.6380,-10.6457,-11.5178
8904,-0.0501,0.0375,9.8530,0.5775,0.2149,0.0112,1.6326,-10.6088,-11.4749
8912,-0.0005,0.0525,9.8497,0.4922,0.2442,0.2081,1.6272,-10.5719,-11.4321
8920,0.0299,0.0629,9.8485,0.4559,0.3014,0.3751,1.6260,-10.5373,-11.3937
8928,-0.0182,0.0855,9.8247,0.4373,0.2709,0.5000,1.6248,-10.5029,-11.3555
8936,-0.0076,0.0736,9.8245,0.5047,0.1243,0.6782,1.6209,-10.4643,-11.3190
8944,-0.0166,0.0488,9.8252,0.4466,0.1815,0.7580,1.6160,-10.4291,-11.2784
8952,0.0317,0.0486,9.8332,0.4977,0.0202,0.8475,1.6117,-10.3929,-11.2437
8960,0.0093,0.0439,9.8217,0.4212,-0.0114,1.0479,1.6027,-10.3580,-11.2076
8968,0.0483,0.0478,9.8364,0.3480,-0.0230,1.1621,1.5936,-10.3232,-11.1716
8976,0.0604,0.0491,9.8310,0.2701,-0.0047,1.3407,1.5904,-10.2864,-11.1347
8984,0.0331,-0.0058,9.8188,0.2649,0.0155,1.4501,1.5867,-10.2487,-11.1037
8992,0.0607,-0.0431,9.8215,0.2679,0.2001,1.4241,1.5825,-10.2080,-11.0685
9000,0.1048,-0.0482,9.8221,0.2255,0.2779,1.3592,1.5808,-10.1716,-11.0336
9008,0.0541,-0.0301,9.8290,0.2809,0.2164,1.3958,1.5792,-10.1354,-11.0013
9016,0.0287,-0.0118,9.8234,0.2459,0.1095,1.1375,1.5776,-10.0993,-10.9666
9024,0.0509,0.0097,9.8178,0.1830,-0.0220,1.0585,1.5760,-10.0634,-10.9320
9032,0.0390,-0.0091,9.8065,0.1363,-0.1291,1.1349,1.5708,-10.0302,-10.9001
9040,0.0269,-0.0402,9.7893,0.1370,0.0219,1.2427,1.5655,-9.9971,-10.8683
9048,0.0132,-0.0419,9.7839,0.0496,0.0702,1.2684,1.5603,-9.9642,-10.8366
9056,0.0040,-0.0631,9.7785,0.0993,0.0097,1.2983,1.5582,-9.9293,-10.8004
9064,-0.0198,-0.0791,9.7863,-0.0397,0.0426,1.3616,1.5561,-9.8945,-10.7643
9072,-0.0222,-0.0493,9.7839,-0.0420,-0.0060,1.4328,1.5457,-9.8578,-10.7288
9080,-0.0367,-0.0643,9.7721,-0.0229,0.1396,1.3355,1.5353,-9.8212,-10.6934
9088,0.0122,-0.0423,9.7505,-0.0260,0.0121,1.3252,1.5307,-9.7827,-10.6577
9096,0.0008,-0.0452,9.7674,-0.0263,0.0315,1.3339,1.5298,-9.7510,-10.6247
9104,0.0356,-0.0538,9.7640,0.0028,0.0581,1.3423,1.5236,-9.7143,-10.5918
9112,0.0457,-0.0665,9.7532,-0.0467,0.3421,1.5423,1.5201,-9.6804,-10.5564
9120,0.0539,-0.0612,9.7926,-0.0327,0.1871,1.6563,1.5165,-9.6465,-10.5211
9128,0.0112,-0.0254,9.8428,-0.0087,0.0816,1.6612,1.5125,-9.6082,-10.4865
9136,-0.0110,-0.0249,9.8400,0.0490,0.1139,1.8713,1.5059,-9.5751,-10.4520
9144,-0.0051,-0.0213,9.8507,0.0428,0.0622,1.9575,1.5050,-9.5401,-10.4171
9152,-0.0253,-0.0517,9.8335,-0.0218,0.1168,1.9947,1.5041,-9.5053,-10.3824
9160,-0.0040,0.0069,9.8065,-0.0303,0.0596,1.8995,1.5032,-9.4705,-10.3477
9168,-0.0530,-0.0194,9.7985,-0.0650,-0.0457,1.7605,1.4987,-9.4349,-10.3158
9176,-0.0864,-0.0295,9.8012,0.0324,-0.0744,1.8489,1.4942,-9.3994,-10.2840
9184,-0.0465,-0.0368,9.8124,-0.0770,-0.0779,1.7921,1.4928,-9.3671,-10.2491
9192,-0.0742,-0.0174,9.8311,-0.0271,-0.0865,1.8604,1.4914,-9.3349,-10.2144
9200,-0.0523,-0.0195,9.8399,-0.0406,-0.0921,1.8485,1.4900,-9.3029,-10.1799
9208,-0.0949,-0.0086,9.8392,-0.0242,-0.1615,1.9037,1.4897,-9.2710,-10.1465
9216,-0.0906,-0.0161,9.8326,-0.0752,-0.1744,1.8658,1.4821,-9.2382,-10.1121
9224,-0.1049,-0.0311,9.8627,0.0307,-0.1709,1.9310,1.4771,-9.2091,-10.0841
9232,-0.0933,-0.0268,9.8666,0.1133,-0.1754,1.9399,1.4722,-9.1801,-10.0562
9240,-0.0860,0.0066,9.8602,0.1763,-0.2038,1.9938,1.4677,-9.1455,-10.0201
9248,-0.1035,0.0100,9.8671,0.2578,-0.1910,2.0133,1.4618,-9.1137,-9.9867
9256,-0.1267,-0.0111,9.8360,0.3038,-0.1627,1.8987,1.4636,-9.0804,-9.9586
9264,-0.1062,0.0081,9.8215,0.3185,-0.2449,1.8930,1.4592,-9.0473,-9.9244
9272,-0.1477,-0.0019,9.8267,0.3511,-0.2649,1.9196,1.4548,-9.0143,-9.8904
9280,-0.1225,0.0314,9.8003,0.3957,-0.2974,1.9797,1.4535,-8.9824,-9.8569
9288,-0.1712,0.0097,9.8015,0.2810,-0.2724,1.9146,1.4522,-8.9506,-9.8236
9296,-0.1578,0.0187,9.8323,0.2647,-0.3659,1.8949,1.4494,-8.9215,-9.7940
9304,-0.1799,-0.0215,9.8213,0.2517,-0.3353,1.9854,1.4466,-8.8926,-9.7645
9312,-0.1347,-0.0277,9.7955,0.3300,-0.4180,1.8933,1.4437,-8.8637,-9.7351
9320,-0.1344,-0.0220,9.7699,0.4075,-0.4864,1.8346,1.4389,-8.8324,-9.7048
9328,-0.1432,-0.0582,9.7763,0.3696,-0.3839,1.8531,1.4341,-8.8012,-9.6745
9336,-0.1216,-0.0337,9.7830,0.3814,-0.3125,1.9161,1.4338,-8.7701,-9.6419
9344,-0.1221,-0.0410,9.7685,0.2753,-0.2602,1.9577,1.4336,-8.7391,-9.6093
9352,-0.1202,-0.0491,9.7714,0.3072,-0.2102,1.8775,1.4349,-8.7093,-9.5768
9360,-0.1295,-0.0705,9.7795,0.3270,-0.2157,1.8701,1.4306,-8.6765,-9.5465
9368,-0.0896,-0.0675,9.7709,0.3220,-0.2690,1.8284,1.4248,-8.6438,-9.5138
9376,-0.1036,-0.0799,9.7681,0.3039,-0.3013,1.7458,1.4205,-8.6112,-9.4848
9384,-0.1417,-0.1088,9.7705,0.2812,-0.3082,1.9068,1.4162,-8.5788,-9.4558
9392,-0.0984,-0.1149,9.7755,0.1662,-0.2454,1.9168,1.4155,-8.5490,-9.4259
9400,-0.0992,-0.1169,9.7777,0.2482,-0.2814,1.9984,1.4189,-8.5219,-9.3972
9408,-0.0754,-0.1272,9.7629,0.2786,-0.3371,1.9911,1.4142,-8.4863,-9.3706
9416,-0.1167,-0.0897,9.7708,0.2970,-0.3025,2.0134,1.4094,-8.4599,-9.3399
9424,-0.1687,-0.0658,9.7881,0.1679,-0.3173,2.1414,1.4047,-8.4336,-9.3095
9432,-0.1706,0.0055,9.7978,0.1245,-0.1875,2.2771,1.4045,-8.3998,-9.2831
9440,-0.1336,0.0254,9.7997,0.0590,-0.1406,2.3083,1.4043,-8.3661,-9.2569
9448,-0.1384,0.0224,9.8083,0.0604,-0.3412,2.3221,1.3981,-8.3325,-9.2292
9456,-0.1131,0.0348,9.8024,0.0217,-0.3517,2.3992,1.3919,-8.2991,-9.2017
9464,-0.1080,0.0505,9.8262,0.1367,-0.3963,2.4677,1.3856,-8.2657,-9.1742
9472,-0.0779,0.0529,9.8313,0.1026,-0.3111,2.4905,1.3815,-8.2371,-9.1438
9480,-0.0907,0.0327,9.8268,0.1048,-0.3682,2.5577,1.3773,-8.2085,-9.1134
9488,-0.1001,0.0587,9.8064,0.0908,-0.4361,2.2912,1.3737,-8.1796,-9.0837
9496,-0.1140,0.0589,9.7929,0.1361,-0.3944,2.3271,1.3711,-8.1482,-9.0556
9504,-0.0846,0.0723,9.7967,-0.0446,-0.4506,2.3267,1.3685,-8.1170,-9.0276
9512,-0.1000,0.0904,9.7919,-0.0974,-0.4322,2.2383,1.3654,-8.0874,-8.9992
9520,-0.0980,0.1122,9.8053,-0.0998,-0.3987,2.2872,1.3613,-8.0619,-8.9719
9528,-0.1217,0.1256,9.7824,-0.2329,-0.4973,2.1739,1.3608,-8.0315,-8.9447
9536,-0.1276,0.1140,9.7621,-0.1334,-0.5516,2.0282,1.3602,-8.0011,-8.9176
9544,-0.1207,0.1108,9.7733,-0.1183,-0.3769,1.7796,1.3612,-7.9709,-8.8906
9552,-0.1080,0.0824,9.7848,-0.0692,-0.3565,1.6245,1.3601,-7.9403,-8.8617
9560,-0.0911,0.0713,9.7998,-0.1689,-0.4409,1.4815,1.3540,-7.9108,-8.8318
9568,-0.0548,0.0225,9.7774,-0.0802,-0.6630,1.3634,1.3479,-7.8814,-8.8021
9576,-0.0398,0.0066,9.7685,-0.1315,-0.6167,1.0585,1.3419,-7.8521,-8.7724
9584,-0.0307,0.0091,9.7632,-0.0578,-0.5458,1.0043,1.3404,-7.8235,-8.7449
9592,-0.0476,0.0186,9.7361,0.0767,-0.4833,0.7658,1.3389,-7.7949,-8.7174
9600,0.0059,0.0217,9.7607,0.2053,-0.4929,0.8257,1.3374,-7.7679,-8.6926
9608,-0.0012,-0.0114,9.7712,0.2322,-0.5181,0.7550,1.3359,-7.7411,-8.6679
9616,0.0347,-0.0004,9.7816,0.2314,-0.3741,0.5647,1.3344,-7.7143,-8.6432
9624,0.0312,-0.0082,9.7878,0.3025,-0.4365,0.4360,1.3319,-7.6907,-8.6176
9632,0.0094,-0.0139,9.7783,0.2399,-0.4135,0.4010,1.3304,-7.6641,-8.5881
9640,-0.0313,-0.0222,9.7876,0.2413,-0.3861,0.4396,1.3274,-7.6326,-8.5637
9648,0.0102,-0.0248,9.8105,0.2987,-0.3226,0.4524,1.3229,-7.6032,-8.5359
9656,-0.0379,-0.0198,9.8039,0.3109,-0.3259,0.3287,1.3185,-7.5739,-8.5082
9664,-0.0249,-0.0294,9.8066,0.2613,-0.3690,0.4397,1.3175,-7.5472,-8.4855
9672,-0.0041,-0.0089,9.8364,0.3338,-0.3249,0.4872,1.3136,-7.5211,-8.4600
9680,-0.0394,-0.0419,9.8283,0.2778,-0.2908,0.5033,1.3096,-7.4977,-8.4335
9688,0.0010,-0.0352,9.8505,0.2856,-0.3221,0.7000,1.3092,-7.4642,-8.4031
9696,0.0026,0.0008,9.8456,0.2904,-0.4401,0.7254,1.3088,-7.4309,-8.3728
9704,-0.0389,0.0252,9.8393,0.2069,-0.5075,0.6698,1.3084,-7.3977,-8.3427
9712,-0.0390,0.0109,9.8400,0.2045,-0.4200,0.7952,1.3055,-7.3722,-8.3141
9720,-0.0514,0.0143,9.8111,0.2555,-0.4591,0.8485,1.3026,-7.3468,-8.2856
9728,-0.0076,0.0133,9.8290,0.2802,-0.3497,0.8328,1.2997,-7.3229,-8.2582
9736,-0.0530,-0.0026,9.8303,0.2586,-0.4238,0.8631,1.2968,-7.2991,-8.2309
9744,-0.0723,-0.0052,9.8250,0.2566,-0.5480,0.7587,1.2939,-7.2755,-8.2037
9752,-0.0966,-0.0071,9.8093,0.3399,-0.6934,0.9336,1.2925,-7.2464,-8.1756
9760,-0.0726,0.0231,9.8379,0.3343,-0.5791,0.7702,1.2866,-7.2184,-8.1531
9768,-0.0850,0.0445,9.8319,0.3477,-0.6352,0.7472,1.2808,-7.1905,-8.1307
9776,-0.1359,0.0470,9.8065,0.3151,-0.6648,0.7226,1.2819,-7.1657,-8.1063
9784,-0.0703,0.0588,9.8226,0.3212,-0.7224,0.7177,1.2796,-7.1390,-8.0841
9792,-0.0561,0.0495,9.8108,0.3324,-0.7509,0.6064,1.2763,-7.1114,-8.0559
9800,-0.0710,0.0561,9.8178,0.3485,-0.7168,0.3613,1.2739,-7.0864,-8.0348
9808,-0.0362,0.0452,9.8260,0.2919,-0.6495,0.2682,1.2716,-7.0614,-8.0137
9816,-0.0416,0.0153,9.8157,0.2537,-0.5824,0.1686,1.2628,-7.0346,-7.9848
9824,-0.0351,-0.0031,9.8191,0.2386,-0.6490,0.1719,1.2620,-7.0084,-7.9579
9832,-0.0889,-0.0243,9.8172,0.2294,-0.6674,0.0925,1.2613,-6.9847,-7.9336
9840,-0.0469,-0.0198,9.8359,0.3726,-0.6129,0.0085,1.2625,-6.9632,-7.9075
9848,-0.0613,-0.0025,9.8442,0.3256,-0.6168,-0.0478,1.2637,-6.9417,-7.8814
9856,-0.0616,-0.0530,9.8408,0.2966,-0.5885,0.0370,1.2649,-6.9203,-7.8554
9864,-0.0532,-0.0061,9.8419,0.1996,-0.5215,0.0328,1.2581,-6.8920,-7.8279
9872,-0.0534,-0.0043,9.8387,0.2002,-0.6308,-0.0833,1.2513,-6.8638,-7.8006
9880,-0.0038,0.0093,9.8312,0.1953,-0.6766,-0.2662,1.2481,-6.8372,-7.7754
9888,-0.0046,0.0379,9.8427,0.1774,-0.7950,-0.3159,1.2448,-6.8106,-7.7502
9896,0.0453,0.0160,9.8231,0.1123,-0.6896,-0.4167,1.2416,-6.7842,-7.7252
9904,0.0454,0.0221,9.8367,0.2259,-0.6875,-0.5424,1.2379,-6.7624,-7.6997
9912,0.0650,0.0140,9.8586,0.1880,-0.6215,-0.5479,1.2327,-6.7376,-7.6783
9920,0.0431,-0.0079,9.8680,0.1064,-0.5211,-0.6972,1.2295,-6.7124,-7.6549
9928,0.0548,-0.0273,9.8655,0.1243,-0.4277,-0.6373,1.2263,-6.6874,-7.6317
9936,0.0885,-0.0371,9.8637,0.1282,-0.5037,-0.6361,1.2252,-6.6629,-7.6065
9944,0.1032,-0.0601,9.8516,0.2092,-0.4750,-0.6562,1.2225,-6.6400,-7.5814
9952,0.0836,-0.0850,9.8457,0.1746,-0.5223,-0.6514,1.2193,-6.6176,-7.5569
9960,0.0777,-0.0693,9.8722,0.1763,-0.3622,-0.5216,1.2162,-6.5954,-7.5325
9968,0.0023,-0.0099,9.8529,0.2205,-0.3904,-0.5733,1.2111,-6.5687,-7.5052
9976,0.0811,0.0137,9.8633,0.1268,-0.4334,-0.5509,1.2124,-6.5447,-7.4820
9984,0.0067,0.0096,9.8312,0.1439,-0.4185,-0.6814,1.2138,-6.5207,-7.4588
9992,0.0168,0.0414,9.8504,0.1415,-0.3242,-0.6329,1.2101,-6.4958,-7.4392
10000,0.0173,0.0378,9.8669,0.1446,-0.2901,-0.6158,1.2065,-6.4710,-7.4196
10008,-0.0274,0.0163,9.8686,0.0862,-0.1908,-0.6155,1.2029,-6.4463,-7.4001
10016,-0.0906,-0.0190,9.8784,0.0837,-0.0878,-0.6365,1.2003,-6.4202,-7.3723
10024,-0.0881,-0.0369,9.8562,0.1986,0.0506,-0.6486,1.1977,-6.3941,-7.3445
10032,-0.0571,-0.0153,9.8654,0.3352,0.0630,-0.5802,1.1937,-6.3692,-7.3198
10040,-0.0122,0.0070,9.8590,0.3592,-0.0798,-0.4267,1.1896,-6.3444,-7.2952
10048,-0.0495,0.0099,9.8396,0.4194,-0.1710,-0.1680,1.1865,-6.3196,-7.2717
10056,-0.0272,0.0298,9.8335,0.3410,-0.1382,-0.1499,1.1830,-6.2994,-7.2502
10064,-0.0039,-0.0168,9.8325,0.3914,-0.0936,-0.0313,1.1820,-6.2777,-7.2263
10072,0.0464,-0.0190,9.8101,0.3782,0.0398,0.0954,1.1794,-6.2537,-7.2000
10080,0.0595,-0.0168,9.8091,0.2882,-0.0780,0.3607,1.1769,-6.2298,-7.1738
10088,0.1061,-0.0098,9.8231,0.2183,-0.2040,0.4356,1.1759,-6.2108,-7.1517
10096,0.0347,0.0042,9.8317,0.2286,-0.1591,0.5153,1.1704,-6.1851,-7.1267
10104,0.0864,0.0219,9.8227,0.2519,-0.1109,0.5568,1.1654,-6.1638,-7.1022
10112,0.0711,0.0038,9.8136,0.3542,-0.1794,0.5725,1.1604,-6.1427,-7.0778
10120,0.0560,-0.0007,9.7940,0.3293,-0.1143,0.4329,1.1555,-6.1216,-7.0535
10128,0.0081,-0.0258,9.7849,0.3695,-0.0493,0.5073,1.1545,-6.0966,-7.0328
10136,-0.0120,-0.0335,9.7657,0.2666,-0.1339,0.6425,1.1536,-6.0717,-7.0121
10144,-0.0152,-0.0641,9.7529,0.2536,0.0013,0.7318,1.1487,-6.0484,-6.9930
10152,0.0412,-0.0299,9.7700,0.1877,0.0131,0.6546,1.1438,-6.0252,-6.9739
10160,-0.0413,-0.0371,9.7828,0.1675,0.0992,0.6340,1.1389,-6.0021,-6.9549
10168,0.0194,0.0078,9.8012,0.2867,-0.0372,0.7770,1.1385,-5.9820,-6.9364
10176,0.0379,-0.0022,9.7886,0.3235,-0.0903,0.8017,1.1356,-5.9585,-6.9131
10184,0.0455,-0.0080,9.7869,0.3266,-0.1464,0.8387,1.1273,-5.9331,-6.8928
10192,-0.0069,0.0091,9.8062,0.2523,-0.0720,0.9568,1.1190,-5.9078,-6.8726
10200,0.0264,0.0172,9.8083,0.1972,-0.0649,1.1070,1.1157,-5.8826,-6.8514
10208,0.0141,0.0178,9.8311,0.2671,-0.1781,1.2533,1.1124,-5.8649,-6.8279
10216,0.0062,0.0073,9.8184,0.1981,-0.1584,1.2279,1.1086,-5.8428,-6.8025
10224,-0.0160,-0.0203,9.8002,0.2040,-0.1289,1.2036,1.1087,-5.8242,-6.7791
10232,-0.0384,-0.0062,9.8137,0.1644,-0.0686,1.3030,1.1089,-5.8057,-6.7558
10240,-0.0486,0.0048,9.8096,0.1184,0.0157,1.2328,1.0987,-5.7828,-6.7331
10248,-0.0437,0.0293,9.7994,0.1039,-0.1331,1.3496,1.0984,-5.7659,-6.7105
10256,-0.0543,0.0574,9.8108,0.0979,-0.1313,1.1519,1.0946,-5.7432,-6.6913
10264,-0.0434,0.0404,9.8005,0.0736,-0.1403,1.1790,1.0909,-5.7206,-6.6723
10272,-0.0358,0.0652,9.7976,0.0743,-0.0902,1.1381,1.0872,-5.6980,-6.6533
10280,0.0061,0.0580,9.7863,0.2030,-0.0930,1.1951,1.0835,-5.6789,-6.6358
10288,-0.0015,0.0442,9.7939,0.1341,-0.0156,1.1455,1.0798,-5.6599,-6.6184
10296,0.0495,0.0303,9.7839,0.1081,0.0210,1.1435,1.0766,-5.6366,-6.5981
10304,0.0569,0.0073,9.7940,0.1207,0.0854,1.0322,1.0734,-5.6133,-6.5779
10312,0.0490,-0.0081,9.8131,0.0980,0.0136,1.0645,1.0678,-5.5926,-6.5513
10320,0.0496,-0.0438,9.7985,0.0603,-0.0070,1.0900,1.0646,-5.5695,-6.5263
10328,0.0173,-0.0256,9.7863,0.1043,-0.0348,0.9944,1.0624,-5.5489,-6.5088
10336,0.0378,-0.0338,9.8039,0.0690,-0.0427,0.9616,1.0622,-5.5269,-6.4943
10344,0.0454,-0.0648,9.8143,0.0193,-0.0075,1.0156,1.0620,-5.5050,-6.4798
10352,-0.0037,-0.0442,9.8343,0.0917,-0.0139,0.9606,1.0594,-5.4803,-6.4638
10360,-0.0077,-0.0569,9.8131,0.0090,-0.0467,0.7773,1.0558,-5.4570,-6.4431
10368,-0.0208,-0.0143,9.8027,0.0845,-0.1287,0.7727,1.0541,-5.4388,-6.4239
10376,-0.0500,0.0043,9.7877,0.0741,-0.0951,0.7230,1.0471,-5.4162,-6.4066
10384,-0.0491,0.0120,9.7624,0.0428,-0.0657,0.7901,1.0401,-5.3937,-6.3895
10392,-0.0615,0.0272,9.7676,0.0555,-0.1575,0.7023,1.0341,-5.3757,-6.3656
10400,-0.0704,0.0341,9.7870,0.0624,-0.0987,0.6103,1.0281,-5.3578,-6.3417
10408,-0.0270,-0.0235,9.7626,0.0316,-0.1357,0.4450,1.0280,-5.3374,-6.3238
10416,-0.0264,-0.0295,9.7465,0.0501,-0.0299,0.6523,1.0279,-5.3171,-6.3059
10424,0.0059,-0.0031,9.7487,-0.0255,-0.0646,0.5811,1.0278,-5.2969,-6.2881
10432,-0.0253,0.0185,9.7444,0.1209,0.0142,0.4971,1.0253,-5.2758,-6.2679
10440,0.0311,0.0180,9.7395,0.0982,0.0228,0.4834,1.0227,-5.2548,-6.2478
10448,0.0411,0.0312,9.7333,0.1619,0.0445,0.4277,1.0197,-5.2382,-6.2322
10456,0.0489,0.0099,9.7382,0.1534,0.1078,0.4650,1.0128,-5.2188,-6.2092
10464,0.0490,-0.0285,9.7294,0.1586,0.1710,0.5434,1.0059,-5.1994,-6.1864
10472,0.0592,0.0001,9.7182,0.1130,0.0608,0.6957,1.0035,-5.1835,-6.1646
10480,0.0693,-0.0219,9.7259,0.1733,0.1075,0.9160,1.0020,-5.1638,-6.1414
10488,0.0739,-0.0167,9.7406,0.2070,0.0347,1.1960,1.0015,-5.1412,-6.1202
10496,0.0854,0.0135,9.7607,0.1672,-0.0909,1.3251,1.0010,-5.1186,-6.0991
10504,0.0711,0.0176,9.7785,0.2118,-0.0456,1.6565,0.9990,-5.1011,-6.0805
10512,0.0542,0.0677,9.7676,0.1158,-0.1597,1.7122,0.9970,-5.0850,-6.0596
10520,0.0821,0.0539,9.7483,0.2107,-0.3327,1.8453,0.9951,-5.0676,-6.0411
10528,0.1283,0.0560,9.7704,0.1814,-0.1569,1.8927,0.9931,-5.0502,-6.0227
10536,0.0721,0.0492,9.7613,0.1401,-0.2661,1.9353,0.9912,-5.0328,-6.0044
10544,0.1252,0.0526,9.7913,0.1779,-0.1625,1.9761,0.9897,-5.0175,-5.9842
10552,0.1022,0.0680,9.7993,0.2034,-0.1674,2.1297,0.9883,-5.0022,-5.9640
10560,0.1346,0.0674,9.8206,0.1425,-0.1108,2.2580,0.9883,-4.9846,-5.9429
10568,0.1111,0.0399,9.8026,0.1428,-0.2647,2.0339,0.9883,-4.9670,-5.9219
10576,0.1172,0.0451,9.7909,0.1672,-0.4145,2.1077,0.9884,-4.9494,-5.9010
10584,0.0840,0.0462,9.7916,0.1692,-0.5338,2.0796,0.9869,-4.9344,-5.8836
10592,0.0995,0.0545,9.8019,0.2084,-0.6105,1.9514,0.9850,-4.9174,-5.8667
10600,0.1413,0.0187,9.8052,0.1392,-0.5505,1.8528,0.9894,-4.9030,-5.8513
10608,0.1655,0.0405,9.7951,0.1424,-0.5198,1.8945,0.9851,-4.8876,-5.8296
10616,0.1710,0.0183,9.7895,0.0814,-0.5705,1.8197,0.9807,-4.8723,-5.8080
10624,0.1203,0.0338,9.7995,0.0391,-0.5309,1.9588,0.9793,-4.8599,-5.7875
10632,0.1146,0.0487,9.8186,0.0947,-0.5704,1.8572,0.9798,-4.8408,-5.7660
10640,0.0926,0.0371,9.8121,0.0038,-0.3948,1.8294,0.9794,-4.8257,-5.7470
10648,0.1205,0.0390,9.8081,-0.0697,-0.4243,1.6881,0.9775,-4.8091,-5.7282
10656,0.0879,0.0142,9.8141,-0.0094,-0.4391,1.7077,0.9756,-4.7926,-5.7093
10664,0.0930,0.0014,9.7967,0.0003,-0.3013,1.6251,0.9737,-4.7761,-5.6906
10672,0.1035,0.0262,9.7905,-0.0011,-0.3002,1.5994,0.9762,-4.7602,-5.6714
10680,0.0721,0.0077,9.7863,-0.0638,-0.2058,1.5855,0.9787,-4.7443,-5.6522
10688,0.0678,-0.0146,9.7829,-0.0678,-0.2861,1.5642,0.9768,-4.7285,-5.6332
10696,0.0588,-0.0224,9.7835,-0.0822,-0.3043,1.4666,0.9749,-4.7084,-5.6113
10704,0.0818,0.0138,9.7909,-0.1013,-0.3004,1.5625,0.9730,-4.6883,-5.5894
10712,0.0733,0.0120,9.7839,-0.2369,-0.2727,1.4862,0.9701,-4.6707,-5.5735
10720,0.0520,-0.0221,9.7758,-0.2680,-0.3315,1.3226,0.9683,-4.6532,-5.5493
10728,0.0177,-0.0346,9.7711,-0.2123,-0.2890,1.2622,0.9664,-4.6358,-5.5252
10736,0.0168,-0.0292,9.7610,-0.1298,-0.2644,1.0657,0.9621,-4.6184,-5.5085
10744,-0.0151,-0.0247,9.7742,-0.0802,-0.2489,1.0618,0.9593,-4.6049,-5.4904
10752,-0.0038,-0.0215,9.7738,-0.0727,-0.2607,0.9354,0.9618,-4.5911,-5.4743
10760,-0.0137,-0.0592,9.7479,-0.0496,-0.2774,0.8359,0.9653,-4.5733,-5.4549
10768,-0.0577,-0.0691,9.7528,0.0365,-0.2586,0.6288,0.9688,-4.5557,-5.4355
10776,-0.0733,-0.0986,9.7640,0.0575,-0.4140,0.6573,0.9640,-4.5395,-5.4181
10784,-0.0861,-0.1089,9.7883,0.0056,-0.3627,0.7673,0.9636,-4.5254,-5.4003
10792,-0.0681,-0.0759,9.7779,0.0680,-0.0789,0.9258,0.9608,-4.5098,-5.3801
10800,-0.0591,-0.0638,9.7844,0.0769,-0.0288,0.9361,0.9589,-4.4982,-5.3649
10808,-0.0455,-0.0842,9.7949,0.0802,0.0458,1.0925,0.9571,-4.4866,-5.3496
10816,-0.0340,-0.0731,9.8067,0.0753,-0.0670,1.1701,0.9553,-4.4750,-5.3345
10824,-0.0469,-0.0754,9.8087,0.0093,-0.1801,1.2577,0.9510,-4.4533,-5.3145
10832,-0.0509,-0.0419,9.8255,-0.0272,-0.0856,1.3307,0.9468,-4.4317,-5.2946
10840,-0.0212,-0.0289,9.8116,-0.0541,-0.0992,1.1446,0.9493,-4.4160,-5.2777
10848,-0.0066,-0.0677,9.8541,-0.1118,-0.1149,1.0946,0.9519,-4.4003,-5.2608
10856,0.0216,-0.1037,9.8821,-0.1616,-0.2953,0.9108,0.9549,-4.3803,-5.2435
10864,-0.0257,-0.1117,9.8937,-0.1079,-0.3504,0.8897,0.9536,-4.3623,-5.2282
10872,-0.0203,-0.1421,9.8806,-0.0619,-0.4005,0.7655,0.9483,-4.3488,-5.2101
10880,0.0047,-0.1606,9.8578,-0.0606,-0.3470,0.6814,0.9456,-4.3289,-5.1978
10888,-0.0406,-0.1445,9.8413,-0.0727,-0.3279,0.5904,0.9428,-4.3092,-5.1855
10896,0.0277,-0.1208,9.8454,-0.0949,-0.3123,0.6153,0.9381,-4.2948,-5.1656
10904,0.0358,-0.0803,9.8537,0.0252,-0.4760,0.7244,0.9383,-4.2757,-5.1481
10912,0.0199,-0.0996,9.8544,0.0440,-0.4086,0.7061,0.9384,-4.2605,-5.1307
10920,-0.0040,-0.0656,9.8332,-0.0046,-0.3334,0.7846,0.9386,-4.2453,-5.1133
10928,-0.0179,-0.0654,9.8208,-0.0138,-0.2802,0.8197,0.9354,-4.2336,-5.0985
10936,0.0246,-0.0525,9.8383,-0.0546,-0.2080,0.7306,0.9336,-4.2166,-5.0793
10944,0.0475,-0.0448,9.8232,0.0397,-0.1763,0.6561,0.9318,-4.1996,-5.0602
10952,0.0451,-0.0694,9.8309,0.0099,-0.1886,0.6434,0.9320,-4.1808,-5.0440
10960,0.0397,-0.0428,9.8210,-0.0079,-0.3498,0.6447,0.9322,-4.1620,-5.0279
10968,0.0653,-0.0584,9.8134,-0.0036,-0.3839,0.6672,0.9324,-4.1433,-5.0118
10976,0.0311,-0.0375,9.7952,0.0111,-0.3685,0.6781,0.9359,-4.1261,-4.9958
10984,0.0134,-0.0304,9.7955,0.0146,-0.2844,0.6325,0.9395,-4.1090,-4.9799
10992,0.0133,-0.0116,9.8031,-0.0088,-0.1347,0.6076,0.9406,-4.0929,-4.9640
11000,-0.0469,-0.0234,9.8087,-0.0258,-0.1648,0.6104,0.9417,-4.0768,-4.9482
11008,-0.0436,-0.0058,9.8123,-0.0234,-0.1377,0.5571,0.9448,-4.0628,-4.9309
11016,-0.0801,0.0239,9.8042,-0.0798,-0.1437,0.5488,0.9425,-4.0444,-4.9152
11024,-0.0345,0.0238,9.8201,-0.0830,-0.1735,0.4662,0.9373,-4.0266,-4.8980
11032,-0.0314,0.0415,9.8381,-0.0754,-0.2446,0.4725,0.9326,-4.0122,-4.8814
11040,-0.0313,0.0187,9.8339,-0.1109,-0.1393,0.2839,0.9280,-3.9978,-4.8649
11048,-0.0181,0.0205,9.8306,0.0232,-0.1266,0.3329,0.9301,-3.9855,-4.8455
11056,-0.0389,0.0166,9.8202,0.0928,-0.1171,0.2624,0.9269,-3.9698,-4.8257
11064,-0.0650,0.0314,9.8036,0.0687,-0.0840,0.3497,0.9319,-3.9532,-4.8103
11072,-0.0275,0.0337,9.7909,0.0403,-0.1617,0.3371,0.9369,-3.9366,-4.7950
11080,-0.0465,0.0332,9.7989,0.0905,-0.1347,0.4237,0.9419,-3.9201,-4.7797
11088,-0.0387,-0.0011,9.7971,0.0985,-0.0475,0.3999,0.9406,-3.9037,-4.7601
11096,-0.0229,0.0313,9.7895,0.1008,-0.0362,0.4492,0.9393,-3.8873,-4.7406
11104,-0.0314,0.0346,9.7849,0.1750,-0.0707,0.4269,0.9390,-3.8690,-4.7264
11112,-0.0258,0.0590,9.7708,0.1873,0.0031,0.4403,0.9386,-3.8508,-4.7123
11120,-0.0054,0.0865,9.7757,0.2310,0.0255,0.3891,0.9383,-3.8326,-4.6982
11128,-0.0401,0.0964,9.7729,0.2302,-0.0570,0.3322,0.9384,-3.8189,-4.6765
11136,-0.0160,0.0844,9.7995,0.2827,-0.0505,0.3097,0.9357,-3.8071,-4.6587
11144,-0.0302,0.0973,9.7976,0.2770,-0.0017,0.2909,0.9344,-3.7935,-4.6429
11152,-0.0248,0.0761,9.8009,0.3141,-0.0137,0.2569,0.9331,-3.7798,-4.6271
11160,-0.0062,0.0419,9.7957,0.3176,-0.0571,0.1711,0.9333,-3.7687,-4.6114
11168,-0.0008,0.0237,9.7960,0.2250,-0.0560,0.1743,0.9306,-3.7532,-4.5952
11176,-0.0187,0.0286,9.7967,0.2325,0.0197,0.1534,0.9274,-3.7383,-4.5763
11184,0.0089,0.0080,9.7992,0.2796,-0.0705,0.1654,0.9285,-3.7224,-4.5583
11192,0.0028,0.0227,9.8151,0.3379,-0.1462,0.0676,0.9296,-3.7067,-4.5404
11200,0.0060,0.0245,9.8131,0.3324,-0.1358,-0.0286,0.9327,-3.6914,-4.5254
11208,0.0057,0.0449,9.8145,0.2898,-0.1179,-0.1793,0.9358,-3.6762,-4.5105
11216,0.0018,-0.0010,9.8103,0.2971,-0.1888,-0.2248,0.9326,-3.6678,-4.5000
11224,0.0101,0.0059,9.7992,0.2667,-0.2886,-0.4175,0.9293,-3.6594,-4.4895
11232,0.0285,-0.0207,9.8028,0.2430,-0.2747,-0.4925,0.9261,-3.6510,-4.4791
11240,0.0055,-0.0284,9.7960,0.2336,-0.2827,-0.5216,0.9273,-3.6379,-4.4696
11248,-0.0562,-0.0395,9.8054,0.2674,-0.2478,-0.4507,0.9284,-3.6248,-4.4602
11256,-0.0096,-0.0117,9.8084,0.2489,-0.1823,-0.4363,0.9243,-3.6108,-4.4479
11264,-0.0403,0.0189,9.7870,0.1620,-0.1411,-0.3611,0.9201,-3.5968,-4.4357
11272,-0.0658,0.0025,9.7913,0.1908,-0.2003,-0.3453,0.9179,-3.5848,-4.4182
11280,-0.0470,-0.0216,9.7811,0.0824,-0.1182,-0.3355,0.9215,-3.5666,-4.4080
11288,-0.0865,-0.0269,9.7764,0.1094,-0.2451,-0.2381,0.9217,-3.5537,-4.3896
11296,-0.1103,-0.0395,9.7745,0.1539,-0.3691,-0.1876,0.9195,-3.5394,-4.3722
11304,-0.1242,-0.0271,9.7417,0.2178,-0.3090,-0.3047,0.9173,-3.5252,-4.3549
11312,-0.1335,-0.0438,9.7426,0.1349,-0.3636,-0.3686,0.9156,-3.5106,-4.3396
11320,-0.1096,-0.0402,9.7197,0.0902,-0.3170,-0.4271,0.9067,-3.4945,-4.3268
11328,-0.1094,-0.0606,9.7158,0.0609,-0.2886,-0.3284,0.9055,-3.4828,-4.3087
11336,-0.1283,-0.0581,9.7274,0.1475,-0.3440,-0.2793,0.9043,-3.4712,-4.2906
11344,-0.1227,-0.0108,9.7993,0.0757,-0.4050,-0.2563,0.9031,-3.4596,-4.2726
11352,-0.1381,0.0371,9.8343,0.1110,-0.3487,-0.2691,0.9000,-3.4457,-4.2557
11360,-0.1233,0.0303,9.8733,0.1607,-0.3615,-0.3026,0.8969,-3.4318,-4.2387
11368,-0.1359,0.0815,9.8849,0.2430,-0.3604,-0.2199,0.8976,-3.4160,-4.2262
11376,-0.1355,0.0768,9.8681,0.1803,-0.2687,-0.2876,0.8984,-3.4002,-4.2137
11384,-0.0672,0.1132,9.9694,0.2270,-0.2316,-0.3069,0.8991,-3.3845,-4.2013
11392,-0.0879,0.1346,9.9414,0.2717,-0.2656,-0.2561,0.8979,-3.3747,-4.1860
11400,-0.1089,0.1381,9.9260,0.3357,-0.2980,-0.2955,0.8948,-3.3648,-4.1741
11408,-0.0942,0.1249,9.9253,0.3170,-0.3663,-0.1305,0.8922,-3.3570,-4.1642
11416,-0.1141,0.0997,9.8982,0.2911,-0.3330,-0.0954,0.8949,-3.3433,-4.1543
11424,-0.0574,0.1216,9.8746,0.3623,-0.2719,-0.0539,0.8976,-3.3298,-4.1401
11432,-0.0599,0.1236,9.8720,0.3104,-0.2560,-0.1875,0.8974,-3.3244,-4.1255
11440,-0.0754,0.1003,9.8723,0.3354,-0.3315,-0.2432,0.8953,-3.3123,-4.1114
11448,-0.0447,0.0761,9.8703,0.2793,-0.4731,-0.2112,0.8927,-3.2969,-4.0978
11456,-0.0115,0.0519,9.8640,0.2604,-0.4378,-0.3245,0.8901,-3.2816,-4.0843
11464,-0.0233,0.0587,9.8532,0.3463,-0.3854,-0.3476,0.8889,-3.2682,-4.0761
11472,0.0201,0.0745,9.8330,0.4124,-0.3939,-0.3644,0.8873,-3.2554,-4.0603
11480,-0.0107,0.0026,9.8157,0.4036,-0.3460,-0.2710,0.8876,-3.2445,-4.0454
11488,0.0125,0.0341,9.8204,0.4219,-0.2070,-0.2804,0.8879,-3.2336,-4.0306
11496,-0.0099,0.0126,9.8070,0.4367,-0.1753,-0.4254,0.8882,-3.2228,-4.0159
11504,-0.0469,-0.0147,9.8121,0.4429,-0.0997,-0.4681,0.8861,-3.2111,-4.0079
11512,-0.0080,-0.0093,9.8022,0.4515,-0.0860,-0.5676,0.8840,-3.1994,-4.0000
11520,-0.0685,-0.0249,9.8238,0.4250,-0.1583,-0.5827,0.8819,-3.1824,-3.9887
11528,-0.0344,-0.0176,9.8196,0.4477,-0.1661,-0.6505,0.8750,-3.1742,-3.9726
11536,-0.0427,-0.0256,9.7944,0.4321,-0.2642,-0.7420,0.8682,-3.1660,-3.9566
11544,-0.0256,-0.0260,9.7993,0.4198,-0.1661,-0.8268,0.8680,-3.1487,-3.9412
11552,-0.0202,-0.0241,9.7979,0.3920,-0.1389,-0.9079,0.8689,-3.1391,-3.9248
11560,0.0043,-0.0246,9.7994,0.2695,-0.1395,-0.8388,0.8668,-3.1214,-3.9114
11568,-0.0268,-0.0041,9.7989,0.2670,-0.0761,-0.9887,0.8658,-3.1037,-3.9013
11576,-0.0390,0.0121,9.7920,0.1446,-0.1168,-1.1241,0.8647,-3.0861,-3.8913
11584,-0.0761,-0.0110,9.7695,0.0408,-0.1291,-1.2349,0.8627,-3.0734,-3.8756
11592,-0.1114,-0.0169,9.7513,0.0803,-0.2235,-1.1328,0.8616,-3.0569,-3.8614
11600,-0.1283,0.0142,9.7417,0.0808,-0.2605,-1.2459,0.8605,-3.0433,-3.8481
11608,-0.1190,0.0037,9.7398,0.0972,-0.1838,-1.3060,0.8590,-3.0278,-3.8320
11616,-0.1867,-0.0077,9.7345,0.0515,-0.1958,-1.2835,0.8575,-3.0124,-3.8160
11624,-0.1550,-0.0180,9.7579,0.1705,-0.3220,-1.2779,0.8559,-2.9970,-3.8001
11632,-0.1400,0.0073,9.7546,0.1297,-0.5119,-1.2940,0.8568,-2.9865,-3.7827
11640,-0.0909,0.0206,9.7601,0.1120,-0.5256,-1.3653,0.8577,-2.9760,-3.7654
11648,-0.1016,0.0158,9.7347,0.0470,-0.4666,-1.5242,0.8586,-2.9656,-3.7482
11656,-0.0825,-0.0104,9.7239,0.0409,-0.3996,-1.6388,0.8623,-2.9508,-3.7329
11664,-0.1209,-0.0136,9.7333,0.0030,-0.3969,-1.7431,0.8593,-2.9400,-3.7210
11672,-0.0941,-0.0046,9.7254,0.1268,-0.3302,-1.7228,0.8602,-2.9248,-3.7063
11680,-0.1118,0.0130,9.7256,0.0586,-0.3438,-1.6554,0.8635,-2.9131,-3.6917
11688,-0.1136,0.0021,9.7421,0.0306,-0.3222,-1.5403,0.8667,-2.9014,-3.6771
11696,-0.1194,0.0251,9.7215,0.0492,-0.3175,-1.3955,0.8642,-2.8898,-3.6615
11704,-0.0791,0.0513,9.7202,-0.0050,-0.2703,-1.2918,0.8641,-2.8781,-3.6470
11712,-0.0572,0.0718,9.7336,0.0285,-0.1799,-1.3126,0.8654,-2.8699,-3.6354
11720,-0.0652,0.0977,9.7467,0.0818,-0.2241,-1.2044,0.8624,-2.8541,-3.6239
11728,-0.0965,0.1056,9.7512,0.0315,-0.3410,-1.1517,0.8594,-2.8382,-3.6124
11736,-0.1435,0.0444,9.7402,-0.0032,-0.2821,-1.0986,0.8570,-2.8234,-3.5971
11744,-0.1456,0.0265,9.7490,0.1022,-0.4018,-0.9998,0.8573,-2.8106,-3.5856
11752,-0.0918,0.0325,9.7679,0.1043,-0.2603,-0.9800,0.8577,-2.7978,-3.5743
11760,-0.0847,0.0407,9.7790,0.1277,-0.2716,-0.8225,0.8600,-2.7903,-3.5624
11768,-0.0836,0.0085,9.7836,0.0914,-0.3331,-0.7224,0.8623,-2.7829,-3.5506
11776,-0.0526,0.0267,9.7664,0.1873,-0.2666,-0.6881,0.8646,-2.7754,-3.5389
11784,0.0287,0.0118,9.7845,0.2444,-0.2723,-0.6420,0.8679,-2.7632,-3.5238
11792,0.0308,0.0557,9.7850,0.3336,-0.3392,-0.4992,0.8658,-2.7540,-3.5116
11800,0.0067,0.0225,9.7749,0.2670,-0.4297,-0.4239,0.8614,-2.7399,-3.4986
11808,0.0018,-0.0048,9.7831,0.3553,-0.3456,-0.4347,0.8570,-2.7259,-3.4855
11816,-0.0118,-0.0186,9.7846,0.3490,-0.3346,-0.2076,0.8559,-2.7167,-3.4702
11824,-0.0118,-0.0123,9.7673,0.3163,-0.2787,-0.1425,0.8530,-2.7052,-3.4615
11832,-0.0072,-0.0113,9.7689,0.2558,-0.2545,0.0745,0.8510,-2.6928,-3.4496
11840,0.0019,-0.0116,9.7622,0.2885,-0.1408,0.3806,0.8471,-2.6794,-3.4372
11848,-0.0098,-0.0475,9.7634,0.3758,-0.2080,0.7160,0.8432,-2.6661,-3.4249
11856,-0.0305,-0.0723,9.7640,0.3820,-0.3549,0.8528,0.8393,-2.6566,-3.4135
11864,-0.0538,-0.1042,9.7888,0.4332,-0.3995,1.0502,0.8364,-2.6443,-3.4027
11872,-0.0402,-0.1053,9.7956,0.4396,-0.3594,1.2257,0.8340,-2.6287,-3.3928
11880,-0.0835,-0.0753,9.7877,0.4376,-0.5184,1.3428,0.8316,-2.6132,-3.3830
11888,-0.0930,-0.0496,9.7838,0.3824,-0.6091,1.3641,0.8292,-2.5977,-3.3732
11896,-0.0734,-0.0527,9.7952,0.3536,-0.5065,1.3765,0.8273,-2.5865,-3.3615
11904,-0.0507,-0.0287,9.7928,0.4034,-0.3791,1.2924,0.8254,-2.5754,-3.3499
11912,-0.0748,-0.0210,9.7834,0.2911,-0.3212,1.3799,0.8240,-2.5624,-3.3355
11920,-0.0761,-0.0091,9.7908,0.2263,-0.2659,1.3730,0.8225,-2.5495,-3.3210
11928,-0.0622,-0.0115,9.8193,0.1643,-0.2743,1.4810,0.8211,-2.5366,-3.3067
11936,-0.1016,-0.0032,9.7983,0.1531,-0.4397,1.4910,0.8216,-2.5280,-3.2928
11944,-0.1267,0.0198,9.7819,0.1050,-0.4192,1.7191,0.8197,-2.5147,-3.2733
11952,-0.1221,0.0110,9.7767,0.1043,-0.3836,1.6307,0.8202,-2.5015,-3.2620
11960,-0.0766,0.0353,9.7720,0.0264,-0.3895,1.5674,0.8207,-2.4882,-3.2507
11968,-0.0335,0.0510,9.7950,-0.0322,-0.3579,1.5683,0.8222,-2.4765,-3.2371
11976,-0.0596,0.0424,9.7822,-0.0295,-0.4076,1.6224,0.8232,-2.4662,-3.2230
11984,-0.0473,0.0150,9.7838,-0.0029,-0.4738,1.6582,0.8237,-2.4569,-3.2119
11992,-0.0444,-0.0234,9.7774,-0.0362,-0.5851,1.6737,0.8223,-2.4419,-3.2013
12000,-0.0199,-0.0263,9.7945,-0.0493,-0.6009,1.9073,0.8208,-2.4270,-3.1907
12008,-0.0400,0.0017,9.8095,-0.0539,-0.5254,1.9999,0.8213,-2.4140,-3.1764
12016,0.0100,-0.0214,9.8103,-0.0609,-0.4798,2.0218,0.8218,-2.4011,-3.1621
12024,0.0585,0.0134,9.8074,-0.0090,-0.3295,2.1575,0.8209,-2.3858,-3.1502
12032,0.0892,-0.0071,9.8139,0.0087,-0.3325,2.2605,0.8200,-2.3705,-3.1384
12040,0.0792,-0.0348,9.8070,-0.0385,-0.2713,2.2364,0.8190,-2.3553,-3.1267
12048,0.1079,-0.0129,9.7789,-0.1315,-0.2235,2.3226,0.8215,-2.3445,-3.1178
12056,0.0901,-0.0136,9.8031,-0.0045,-0.2738,2.3225,0.8239,-2.3337,-3.1090
12064,0.1051,0.0054,9.7986,-0.0137,-0.3805,2.2663,0.8220,-2.3234,-3.0984
12072,0.0757,-0.0258,9.8182,0.0042,-0.4319,2.2259,0.8201,-2.3132,-3.0877
12080,0.0879,-0.0216,9.8123,-0.0320,-0.4918,2.2140,0.8235,-2.3072,-3.0752
12088,0.0830,-0.0082,9.7973,-0.0374,-0.4583,2.2799,0.8220,-2.2951,-3.0652
12096,0.1173,-0.0280,9.7797,0.0322,-0.3463,2.2575,0.8221,-2.2854,-3.0518
12104,0.1014,-0.0305,9.7756,0.0001,-0.3619,2.2149,0.8206,-2.2758,-3.0385
12112,0.0578,-0.0090,9.7701,0.0253,-0.3528,2.1021,0.8192,-2.2661,-3.0252
12120,0.0380,-0.0406,9.7837,-0.0385,-0.4187,2.1569,0.8221,-2.2599,-3.0139
12128,-0.0104,-0.0382,9.7861,-0.0649,-0.3938,2.0733,0.8226,-2.2537,-3.0060
12136,-0.0183,-0.0497,9.7850,-0.0048,-0.2820,2.0760,0.8217,-2.2436,-2.9957
12144,-0.0186,-0.0355,9.7754,0.0500,-0.4017,2.0093,0.8207,-2.2336,-2.9854
12152,0.0071,-0.0062,9.7708,0.1051,-0.5002,1.9935,0.8198,-2.2237,-2.9752
12160,-0.0174,0.0220,9.7694,0.0885,-0.5330,2.0477,0.8179,-2.2151,-2.9660
12168,-0.0237,0.0376,9.7708,0.1632,-0.5591,2.0702,0.8161,-2.2067,-2.9569
12176,-0.0153,0.0544,9.7935,0.0880,-0.5494,1.8917,0.8175,-2.1992,-2.9478
12184,-0.0186,0.0469,9.7972,0.0534,-0.6254,1.9530,0.8190,-2.1917,-2.9387
12192,-0.0398,0.0419,9.7851,0.0577,-0.6981,1.9904,0.8204,-2.1843,-2.9296
12200,-0.0626,0.0360,9.7900,0.1444,-0.6663,1.9914,0.8186,-2.1745,-2.9187
12208,-0.0327,0.0561,9.7981,0.1687,-0.7478,2.0430,0.8200,-2.1623,-2.9087
12216,-0.0662,0.0575,9.7896,0.1466,-0.6952,1.9297,0.8224,-2.1521,-2.8984
12224,-0.0405,0.0474,9.7841,0.1975,-0.7942,1.8481,0.8248,-2.1419,-2.8880
12232,0.0009,0.0437,9.7563,0.1661,-0.7262,1.6686,0.8272,-2.1341,-2.8787
12240,0.0312,0.0581,9.7654,0.1495,-0.8345,1.5291,0.8282,-2.1240,-2.8718
12248,0.0157,0.0466,9.7786,0.1282,-0.7220,1.4223,0.8287,-2.1144,-2.8611
12256,0.0259,0.0371,9.7737,0.1399,-0.7025,1.3868,0.8296,-2.1053,-2.8557
12264,0.0086,0.0230,9.7656,0.0950,-0.6651,1.3955,0.8306,-2.0962,-2.8503
12272,0.0755,0.0220,9.7592,0.1215,-0.6321,1.3639,0.8315,-2.0838,-2.8377
12280,0.0276,0.0117,9.7771,0.1334,-0.6192,1.3176,0.8324,-2.0715,-2.8253
12288,0.0908,0.0273,9.7755,0.0702,-0.6815,1.3454,0.8358,-2.0601,-2.8152
12296,0.0811,0.0324,9.8187,0.1431,-0.6477,1.2280,0.8391,-2.0488,-2.8052
12304,0.0331,0.0078,9.8273,0.1301,-0.6555,1.0437,0.8424,-2.0375,-2.7952
12312,-0.0199,0.0038,9.8178,0.1150,-0.6948,0.8461,0.8414,-2.0244,-2.7858
12320,-0.0328,-0.0122,9.8050,0.2019,-0.7298,0.7238,0.8404,-2.0113,-2.7764
12328,-0.0112,-0.0248,9.8026,0.2610,-0.7473,0.6442,0.8408,-1.9958,-2.7660
12336,-0.0704,-0.0467,9.8086,0.2402,-0.7240,0.5468,0.8408,-1.9838,-2.7562
12344,-0.0357,-0.0341,9.7831,0.2603,-0.6751,0.6136,0.8407,-1.9717,-2.7464
12352,-0.0248,-0.0155,9.7677,0.2875,-0.5376,0.5468,0.8421,-1.9641,-2.7362
12360,-0.0048,-0.0319,9.7894,0.3296,-0.4088,0.4856,0.8425,-1.9540,-2.7246
12368,0.0155,-0.0107,9.7935,0.2817,-0.3470,0.5338,0.8406,-1.9426,-2.7187
12376,0.0489,0.0016,9.7958,0.2760,-0.2719,0.4412,0.8386,-1.9312,-2.7129
12384,0.0550,-0.0055,9.8184,0.1906,-0.2027,0.3873,0.8367,-1.9237,-2.7028
12392,0.0983,-0.0442,9.8298,0.1462,-0.1845,0.4984,0.8414,-1.9129,-2.6956
12400,0.1015,-0.0529,9.8250,0.1144,-0.1005,0.5407,0.8428,-1.9078,-2.6875
12408,0.1076,-0.0484,9.8084,0.1053,-0.2095,0.6451,0.8442,-1.9027,-2.6794
12416,0.1546,-0.0238,9.8143,0.1047,-0.1911,0.7583,0.8456,-1.8977,-2.6713
12424,0.1961,-0.0080,9.8133,0.1547,-0.1148,0.8398,0.8465,-1.8860,-2.6619
12432,0.2228,0.0145,9.8105,0.1945,-0.1618,0.8805,0.8474,-1.8744,-2.6525
12440,0.2124,0.0108,9.7958,0.2006,-0.1668,0.9780,0.8444,-1.8670,-2.6402
12448,0.2475,0.0265,9.7920,0.2598,-0.0649,1.0047,0.8415,-1.8598,-2.6280
12456,0.2375,0.0321,9.7885,0.2790,0.0433,1.1155,0.8386,-1.8525,-2.6158
12464,0.2566,0.0276,9.7950,0.3001,0.0293,1.1894,0.8371,-1.8419,-2.6028
12472,0.2744,0.0431,9.7972,0.2456,-0.0507,1.0414,0.8452,-1.8304,-2.5921
12480,0.2758,0.0407,9.7978,0.1774,0.0488,1.0946,0.8461,-1.8214,-2.5815
12488,0.2726,0.0449,9.8015,0.1550,0.1306,0.9615,0.8532,-1.8109,-2.5733
12496,0.2775,0.0561,9.7867,0.1655,0.0382,1.0022,0.8602,-1.8005,-2.5652
12504,0.2823,0.0342,9.7806,0.0875,0.0565,0.9504,0.8639,-1.7882,-2.5576
12512,0.2676,0.0277,9.7873,0.0583,0.1326,0.9222,0.8652,-1.7798,-2.5514
12520,0.2228,0.0286,9.7770,0.0143,0.1574,0.8206,0.8665,-1.7738,-2.5428
12528,0.2128,0.0272,9.7877,0.0390,0.0692,0.8381,0.8649,-1.7659,-2.5338
12536,0.2010,0.0290,9.7801,-0.0015,0.0968,0.7935,0.8633,-1.7580,-2.5249
12544,0.1617,0.0376,9.7842,0.0345,-0.0395,0.7909,0.8617,-1.7501,-2.5160
12552,0.1566,0.0343,9.7906,0.0556,0.0062,0.8524,0.8653,-1.7442,-2.5109
12560,0.1283,0.0478,9.8005,0.0705,0.0205,0.7992,0.8690,-1.7383,-2.5058
12568,0.1118,0.0409,9.8008,0.0473,0.0209,0.6709,0.8669,-1.7277,-2.4984
12576,0.0955,0.0392,9.8115,-0.0041,-0.0267,0.7563,0.8648,-1.7171,-2.4910
12584,0.0794,0.0399,9.8126,0.0027,0.0184,0.8993,0.8627,-1.7066,-2.4837
12592,0.0689,0.0388,9.8145,0.0385,-0.0425,0.9774,0.8673,-1.6965,-2.4749
12600,0.0644,0.0336,9.8034,0.0274,0.0753,1.0600,0.8694,-1.6865,-2.4686
12608,0.0608,0.0372,9.8003,0.0195,0.1053,1.1071,0.8716,-1.6765,-2.4622
12616,0.0444,0.0322,9.8015,0.0279,0.0967,1.3440,0.8761,-1.6690,-2.4521
12624,0.0331,0.0249,9.8003,0.0173,0.1257,1.4400,0.8773,-1.6610,-2.4440
12632,0.0384,0.0425,9.7897,-0.0195,0.0815,1.6357,0.8795,-1.6511,-2.4339
12640,0.0241,0.0479,9.7869,-0.0921,0.0552,1.7136,0.8816,-1.6413,-2.4230
12648,0.0020,0.0410,9.7808,-0.0654,0.0114,1.8867,0.8837,-1.6315,-2.4120
12656,-0.0038,0.0352,9.7843,0.0134,0.0709,1.9642,0.8844,-1.6255,-2.4012
12664,-0.0210,0.0372,9.7852,0.0514,0.0904,2.1344,0.8888,-1.6181,-2.3903
12672,-0.0137,0.0386,9.7897,0.0637,0.0877,2.2464,0.8861,-1.6098,-2.3819
12680,-0.0190,0.0385,9.7956,0.1289,-0.0322,2.4603,0.8887,-1.6020,-2.3716
12688,-0.0219,0.0561,9.8068,0.0819,0.0372,2.5874,0.8912,-1.5943,-2.3613
12696,-0.0305,0.0557,9.7888,0.1115,-0.0538,2.8236,0.8938,-1.5865,-2.3511
12704,-0.0415,0.0485,9.7783,0.0386,-0.1035,2.8975,0.8963,-1.5803,-2.3443
12712,-0.0546,0.0547,9.7703,0.0409,-0.1510,3.0402,0.8988,-1.5740,-2.3374
12720,-0.0646,0.0749,9.7821,-0.0103,-0.2205,3.1793,0.9037,-1.5664,-2.3273
12728,-0.0851,0.0795,9.7878,-0.0166,-0.1909,3.2830,0.9085,-1.5587,-2.3172
12736,-0.1013,0.1028,9.7902,-0.0066,-0.2026,3.4515,0.9134,-1.5511,-2.3071
12744,-0.0832,0.1167,9.7915,-0.0157,-0.2058,3.5406,0.9206,-1.5388,-2.2961
12752,-0.0878,0.1314,9.7967,0.0023,-0.1848,3.6205,0.9235,-1.5284,-2.2890
12760,-0.0828,0.1421,9.7988,-0.0232,-0.1115,3.6329,0.9259,-1.5199,-2.2824
12768,-0.0738,0.1631,9.8088,-0.0103,-0.1720,3.6794,0.9282,-1.5115,-2.2758
12776,-0.0715,0.1598,9.7996,-0.0406,-0.1552,3.6252,0.9292,-1.5031,-2.2715
12784,-0.0695,0.1527,9.8009,0.0291,-0.1764,3.5521,0.9358,-1.4928,-2.2635
12792,-0.0717,0.1590,9.7975,0.0371,-0.2128,3.4154,0.9363,-1.4888,-2.2508
12800,-0.0796,0.1456,9.8077,0.0715,-0.2742,3.1968,0.9382,-1.4848,-2.2381
12808,-0.0873,0.1221,9.8178,0.0536,-0.2876,2.9371,0.9400,-1.4731,-2.2312
12816,-0.0851,0.1445,9.8251,0.0605,-0.2364,2.7873,0.9409,-1.4682,-2.2205
12824,-0.0881,0.1066,9.8344,0.0672,-0.2274,2.5988,0.9418,-1.4633,-2.2098
12832,-0.0868,0.1168,9.8297,0.1055,-0.2322,2.4293,0.9427,-1.4575,-2.2025
12840,-0.0760,0.1047,9.8436,0.1501,-0.0821,2.2431,0.9436,-1.4516,-2.1952
12848,-0.0753,0.1092,9.8334,0.1182,-0.0506,2.2037,0.9444,-1.4458,-2.1880
12856,-0.0807,0.1229,9.8320,0.0263,-0.0417,2.0087,0.9448,-1.4382,-2.1803
12864,-0.0663,0.1193,9.8302,0.0211,0.0014,1.7636,0.9452,-1.4305,-2.1726
12872,-0.0502,0.1179,9.8440,-0.0052,0.0239,1.5426,0.9461,-1.4210,-2.1631
12880,-0.0506,0.1439,9.8366,-0.0224,0.0455,1.3418,0.9469,-1.4115,-2.1535
12888,-0.0346,0.1297,9.8362,0.0145,0.1115,1.1845,0.9473,-1.4001,-2.1483
12896,-0.0233,0.1200,9.8495,-0.0248,0.1025,1.0555,0.9524,-1.3935,-2.1394
12904,-0.0067,0.1158,9.8446,-0.0198,0.0940,1.0174,0.9556,-1.3865,-2.1313
12912,-0.0204,0.1138,9.8430,-0.0443,0.0272,0.9303,0.9555,-1.3819,-2.1234
12920,-0.0214,0.1015,9.8429,-0.0518,-0.0714,0.9083,0.9554,-1.3773,-2.1154
12928,-0.0337,0.1177,9.8424,-0.0163,0.0423,0.7967,0.9557,-1.3708,-2.1065
12936,-0.0329,0.1447,9.8355,-0.0383,0.1644,0.7139,0.9589,-1.3639,-2.0949
12944,-0.0154,0.1577,9.8311,-0.0087,0.1665,0.7574,0.9606,-1.3588,-2.0875
12952,-0.0451,0.1840,9.8257,-0.0710,0.1445,0.7243,0.9623,-1.3539,-2.0801
12960,-0.0415,0.1842,9.8118,-0.0213,0.0942,0.6047,0.9641,-1.3489,-2.0728
12968,-0.0505,0.2039,9.8179,0.0022,-0.0153,0.6397,0.9625,-1.3420,-2.0612
12976,-0.0618,0.2409,9.8215,0.0034,-0.0881,0.5611,0.9608,-1.3352,-2.0497
12984,-0.0766,0.2502,9.8153,0.0072,-0.1363,0.5019,0.9635,-1.3255,-2.0434
12992,-0.0367,0.2382,9.8269,-0.0238,-0.0890,0.4454,0.9662,-1.3159,-2.0372
13000,-0.0389,0.2277,9.8283,-0.0135,-0.0812,0.2766,0.9688,-1.3063,-2.0310
13008,-0.0381,0.2306,9.8059,0.0577,-0.0817,0.2913,0.9734,-1.3010,-2.0252
13016,-0.0242,0.2249,9.8239,-0.1009,-0.0102,0.1773,0.9784,-1.2914,-2.0214
13024,-0.0203,0.2540,9.7760,-0.1059,-0.0618,0.3322,0.9762,-1.2819,-2.0105
13032,-0.0067,0.2366,9.7814,-0.2333,-0.0871,0.3871,0.9741,-1.2724,-1.9996
13040,0.0088,0.2345,9.7921,-0.2778,-0.2180,0.3649,0.9748,-1.2682,-1.9897
13048,0.0018,0.2084,9.7982,-0.2698,-0.2045,0.4770,0.9765,-1.2611,-1.9851
13056,-0.0136,0.2359,9.8247,-0.2860,-0.3143,0.4029,0.9786,-1.2569,-1.9753
13064,-0.0125,0.2193,9.8491,-0.3149,-0.2486,0.2893,0.9783,-1.2466,-1.9678
13072,-0.0024,0.2065,9.8197,-0.2545,-0.2738,0.1114,0.9781,-1.2363,-1.9604
13080,0.0077,0.1799,9.8091,-0.2368,-0.1752,-0.1974,0.9811,-1.2288,-1.9483
13088,0.0209,0.0940,9.8405,-0.1585,-0.1209,-0.2661,0.9842,-1.2214,-1.9362
13096,-0.0036,-0.1219,9.8638,-0.1636,-0.0424,-0.2757,0.9848,-1.2103,-1.9289
13104,-0.0135,-0.1350,9.8299,-0.1632,-0.0446,-0.3569,0.9855,-1.1991,-1.9216
13112,-0.0334,-0.0954,9.8374,-0.2428,-0.0040,-0.4612,0.9862,-1.1880,-1.9144
13120,-0.0140,-0.1278,9.8437,-0.3456,0.0241,-0.4037,0.9882,-1.1831,-1.9071
13128,-0.0110,-0.1736,9.8554,-0.3158,-0.0450,-0.5513,0.9903,-1.1783,-1.8999
13136,-0.0193,-0.2018,9.8783,-0.2901,0.0089,-0.8738,0.9919,-1.1667,-1.8933
13144,-0.0076,-0.2183,9.8548,-0.2681,0.0392,-0.9155,0.9935,-1.1553,-1.8866
13152,-0.0135,-0.1862,9.8458,-0.2418,0.0521,-1.0701,0.9955,-1.1491,-1.8795
13160,-0.0101,-0.1454,9.8003,-0.2380,-0.0236,-1.1565,0.9961,-1.1467,-1.8757
13168,-0.0175,-0.1289,9.8075,-0.1783,0.0347,-1.3539,0.9958,-1.1367,-1.8705
13176,0.0012,-0.1135,9.8140,-0.0972,0.0612,-1.3720,0.9926,-1.1277,-1.8601
13184,0.0132,-0.0586,9.8139,-0.0944,0.0518,-1.5012,0.9894,-1.1188,-1.8497
13192,0.0428,-0.0404,9.8243,-0.2036,0.0641,-1.5075,0.9933,-1.1108,-1.8432
13200,0.0358,-0.0567,9.8242,-0.2548,0.0439,-1.4362,0.9916,-1.0986,-1.8348
13208,0.0335,-0.0765,9.8163,-0.3544,0.0593,-1.3733,0.9908,-1.0959,-1.8269
13216,0.0283,-0.0401,9.8082,-0.3163,0.0420,-1.3239,0.9937,-1.0889,-1.8209
13224,0.0373,-0.0382,9.7991,-0.2958,-0.0466,-1.2286,0.9967,-1.0820,-1.8150
13232,0.0422,-0.0411,9.8069,-0.3269,0.0181,-1.3214,0.9983,-1.0756,-1.8038
13240,0.0198,-0.0318,9.7952,-0.2447,0.1092,-1.4129,0.9998,-1.0692,-1.7927
13248,0.0036,-0.0434,9.7946,-0.3047,0.1351,-1.5031,1.0018,-1.0656,-1.7869
13256,-0.0061,-0.0289,9.8064,-0.2955,0.0185,-1.6986,1.0038,-1.0621,-1.7810
13264,0.0084,-0.0349,9.8239,-0.2413,-0.0344,-1.9336,1.0058,-1.0586,-1.7752
13272,0.0129,-0.0267,9.8224,-0.2401,0.1097,-2.2543,1.0073,-1.0532,-1.7675
13280,-0.0022,-0.0047,9.8061,-0.2470,0.2209,-2.3343,1.0088,-1.0478,-1.7598
13288,-0.0049,0.0185,9.7758,-0.2696,0.2605,-2.5308,1.0107,-1.0396,-1.7551
13296,-0.0042,0.0107,9.7716,-0.2245,0.2664,-2.7347,1.0122,-1.0333,-1.7474
13304,-0.0090,-0.0241,9.7664,-0.2801,0.1013,-2.6631,1.0137,-1.0271,-1.7398
13312,-0.0252,-0.0524,9.7663,-0.2773,0.0342,-2.6666,1.0161,-1.0218,-1.7323
13320,-0.0157,-0.0230,9.7726,-0.2505,0.0500,-2.9019,1.0185,-1.0141,-1.7271
13328,-0.0112,-0.0200,9.7746,-0.1503,-0.0709,-3.0202,1.0205,-1.0075,-1.7215
13336,-0.0354,0.0474,9.7505,-0.1718,-0.0719,-3.1548,1.0224,-1.0008,-1.7159
13344,-0.0313,0.1262,9.7401,-0.1923,-0.2248,-3.2674,1.0219,-0.9928,-1.7079
13352,-0.0322,0.1159,9.7461,-0.2040,-0.1790,-3.3164,1.0257,-0.9805,-1.7004
13360,-0.0307,0.1380,9.7644,-0.2338,-0.1645,-3.2700,1.0276,-0.9725,-1.6939
13368,-0.0311,0.1030,9.7968,-0.2756,-0.1481,-3.1376,1.0295,-0.9645,-1.6875
13376,-0.0366,0.1045,9.8038,-0.2436,-0.1430,-3.1230,1.0314,-0.9566,-1.6810
13384,-0.0378,0.1213,9.8020,-0.2370,-0.0688,-3.1490,1.0295,-0.9502,-1.6756
13392,-0.0463,0.0746,9.7976,-0.3001,-0.1365,-3.2512,1.0275,-0.9437,-1.6701
13400,-0.0439,0.0556,9.7868,-0.2110,-0.2572,-3.2343,1.0299,-0.9354,-1.6651
13408,-0.0272,0.0561,9.7756,-0.2778,-0.2874,-3.2475,1.0322,-0.9271,-1.6602
13416,-0.0106,0.0589,9.7828,-0.2058,-0.3215,-3.1907,1.0346,-0.9188,-1.6553
13424,-0.0189,0.0750,9.7885,-0.1635,-0.3142,-3.0511,1.0317,-0.9125,-1.6546
13432,-0.0091,0.1434,9.8036,-0.1604,-0.2592,-2.9843,1.0288,-0.9062,-1.6493
13440,-0.0135,0.0837,9.8254,-0.2134,-0.3105,-3.0457,1.0226,-0.8971,-1.6392
13448,-0.0452,0.0829,9.8202,-0.1682,-0.2850,-3.0698,1.0231,-0.8932,-1.6315
13456,-0.0488,0.0836,9.8341,-0.1062,-0.2526,-3.1408,1.0235,-0.8893,-1.6238
13464,-0.0690,0.1293,9.8216,-0.1830,-0.2589,-3.1207,1.0259,-0.8822,-1.6180
13472,-0.0804,0.1246,9.8267,-0.2430,-0.2703,-3.1309,1.0230,-0.8769,-1.6128
13480,-0.0615,0.1245,9.8100,-0.2631,-0.3025,-2.9565,1.0244,-0.8736,-1.5999
13488,-0.0595,0.0962,9.8080,-0.3943,-0.2907,-2.8992,1.0211,-0.8679,-1.5966
13496,-0.0604,0.1266,9.7921,-0.4212,-0.1274,-2.7483,1.0177,-0.8623,-1.5934
13504,-0.0521,0.1067,9.8233,-0.4068,-0.0725,-2.7001,1.0144,-0.8566,-1.5901
13512,-0.0647,0.1329,9.8387,-0.3157,-0.1507,-2.7873,1.0158,-0.8534,-1.5830
13520,-0.0419,0.1133,9.8272,-0.2873,-0.2095,-2.7746,1.0172,-0.8501,-1.5760
13528,-0.0267,0.1808,9.8113,-0.2922,-0.2977,-2.9279,1.0149,-0.8369,-1.5690
13536,-0.0039,0.2154,9.8206,-0.1981,-0.2621,-2.9811,1.0125,-0.8238,-1.5634
13544,0.0227,0.3078,9.7871,-0.2362,-0.1587,-3.2000,1.0101,-0.8107,-1.5579
13552,0.0350,0.2661,9.7759,-0.1712,-0.0678,-3.1480,1.0054,-0.8039,-1.5509
13560,0.0150,0.1833,9.7849,-0.1465,0.0271,-3.2049,1.0030,-0.7970,-1.5464
13568,-0.0057,0.1635,9.7849,-0.1361,-0.0848,-3.1660,1.0007,-0.7902,-1.5418
13576,-0.0158,0.1442,9.8076,-0.0702,-0.0958,-3.3262,0.9998,-0.7825,-1.5364
13584,0.0078,0.1450,9.7958,-0.0392,-0.2610,-3.3433,0.9989,-0.7758,-1.5333
13592,0.0018,0.1315,9.8453,-0.1962,-0.2243,-3.3544,1.0003,-0.7682,-1.5288
13600,-0.0040,0.1495,9.8609,-0.1757,-0.2025,-3.1250,0.9970,-0.7605,-1.5257
13608,-0.0006,0.2531,9.8555,-0.1268,-0.1551,-3.1776,0.9938,-0.7530,-1.5227
13616,-0.0112,0.2973,9.7863,0.0267,-0.2350,-3.0812,0.9943,-0.7445,-1.5168
13624,-0.0158,0.3486,9.7984,0.0162,-0.2501,-3.3011,0.9882,-0.7350,-1.5095
13632,-0.0264,0.3782,9.7825,0.0994,-0.1952,-3.4393,0.9821,-0.7257,-1.5023
13640,-0.0263,0.3367,9.7736,0.0536,-0.2201,-3.4888,0.9845,-0.7159,-1.4955
13648,-0.0463,0.3332,9.7901,0.0286,-0.2572,-3.5895,0.9870,-0.7061,-1.4888
13656,-0.0540,0.2623,9.7964,0.0713,-0.2046,-3.9551,0.9894,-0.6964,-1.4821
13664,-0.0372,0.2527,9.8021,0.2054,-0.2637,-4.0701,0.9871,-0.6867,-1.4792
13672,-0.0352,0.3028,9.7854,0.1257,-0.2962,-3.9454,0.9848,-0.6770,-1.4763
13680,-0.0530,0.3523,9.7425,0.0868,-0.2793,-4.0021,0.9844,-0.6774,-1.4705
13688,-0.0126,0.3829,9.7251,0.0336,-0.2232,-4.1203,0.9840,-0.6777,-1.4648
13696,0.0162,0.3304,9.8127,0.0094,-0.1001,-4.5401,0.9793,-0.6738,-1.4620
13704,0.0172,0.2661,9.8155,-0.0404,-0.1665,-4.6641,0.9732,-0.6685,-1.4582
13712,0.0058,0.2398,9.7971,-0.0480,-0.2486,-4.6041,0.9729,-0.6595,-1.4559
13720,-0.0068,0.1645,9.7922,0.0967,-0.3778,-4.5627,0.9744,-0.6523,-1.4507
13728,-0.0360,0.1478,9.7769,0.1311,-0.5413,-4.7097,0.9759,-0.6452,-1.4455
13736,-0.0560,0.1323,9.7886,0.1079,-0.5483,-4.5730,0.9760,-0.6381,-1.4390
13744,-0.0285,0.1001,9.7690,0.1072,-0.4351,-4.6423,0.9737,-0.6273,-1.4324
13752,-0.0369,0.1155,9.7564,0.1917,-0.4601,-4.5352,0.9705,-0.6188,-1.4250
13760,-0.0113,0.1035,9.7677,0.1473,-0.4387,-4.5288,0.9673,-0.6104,-1.4175
13768,-0.0423,0.0886,9.7720,0.1981,-0.5009,-4.5814,0.9589,-0.6026,-1.4163
13776,-0.0444,0.1106,9.7509,0.1027,-0.4884,-4.6770,0.9571,-0.5937,-1.4069
13784,-0.0367,0.0790,9.7468,0.0515,-0.4497,-4.6457,0.9554,-0.5850,-1.3976
13792,-0.0544,0.0399,9.7363,0.1492,-0.4474,-4.5251,0.9503,-0.5800,-1.3931
13800,-0.0562,0.0342,9.7418,0.0346,-0.4453,-4.5592,0.9452,-0.5751,-1.3886
13808,-0.0684,0.0691,9.7445,-0.0243,-0.4352,-4.5624,0.9402,-0.5702,-1.3842
13816,-0.0648,0.0748,9.7501,-0.0246,-0.4069,-4.6001,0.9352,-0.5616,-1.3797
13824,-0.0424,0.0170,9.7761,0.0497,-0.3104,-4.6229,0.9302,-0.5529,-1.3752
13832,-0.0600,0.0016,9.7742,0.1822,-0.1863,-4.6713,0.9271,-0.5486,-1.3656
13840,-0.0650,0.0802,9.7369,0.0475,-0.2382,-4.5763,0.9240,-0.5443,-1.3560
13848,-0.0512,0.0538,9.7250,0.2093,-0.1625,-4.4561,0.9223,-0.5357,-1.3563
13856,-0.0671,0.0354,9.7380,0.1854,-0.1114,-4.2958,0.9226,-0.5267,-1.3539
13864,-0.0991,0.0283,9.7283,0.1706,-0.0359,-4.1319,0.9195,-0.5178,-1.3452
13872,-0.1045,0.1362,9.7300,0.1111,-0.0651,-4.0898,0.9141,-0.5112,-1.3366
13880,-0.1170,0.0830,9.7584,0.0755,-0.2049,-4.1509,0.9087,-0.5047,-1.3280
13888,-0.1439,0.1588,9.7864,0.0921,-0.2027,-4.0440,0.9028,-0.4949,-1.3228
13896,-0.1199,0.1951,9.7885,0.1774,-0.2485,-4.0244,0.8993,-0.4903,-1.3185
13904,-0.1187,0.2215,9.7826,0.2482,-0.1777,-3.9923,0.8944,-0.4819,-1.3133
13912,-0.0981,0.2450,9.7933,0.2520,-0.0193,-4.0070,0.8895,-0.4736,-1.3082
13920,-0.0949,0.2116,9.8011,0.2529,-0.1212,-4.0610,0.8846,-0.4654,-1.3030
13928,-0.1093,0.1936,9.8068,0.0511,-0.0320,-4.1020,0.8817,-0.4576,-1.3007
13936,-0.0945,0.1947,9.8065,0.2128,0.1600,-4.3386,0.8787,-0.4499,-1.2984
13944,-0.1094,0.2084,9.8240,0.1754,0.1223,-4.5328,0.8729,-0.4440,-1.2942
13952,-0.0842,0.2518,9.7920,0.1957,0.1156,-4.4251,0.8672,-0.4383,-1.2901
13960,-0.0937,0.2132,9.7539,0.2471,0.1385,-4.4235,0.8614,-0.4325,-1.2859
13968,-0.0954,0.2138,9.7331,0.3842,0.1791,-4.4274,0.8557,-0.4306,-1.2770
13976,-0.0961,0.2567,9.7467,0.1660,0.1752,-4.4923,0.8552,-0.4229,-1.2701
13984,-0.0771,0.2435,9.7229,0.0880,0.2568,-4.9171,0.8532,-0.4144,-1.2655
13992,-0.1001,0.2057,9.7420,0.1788,0.2255,-5.0967,0.8513,-0.4059,-1.2610
14000,-0.1477,0.1350,9.7456,0.2496,0.3103,-5.3297,0.8489,-0.3917,-1.2512
14008,-0.1826,0.0847,9.7415,0.4639,0.1513,-5.2193,0.8442,-0.3876,-1.2472
14016,-0.1280,0.0816,9.7857,0.4716,0.0153,-5.1963,0.8366,-0.3849,-1.2437
14024,-0.1047,0.0177,9.7801,0.3482,-0.1387,-5.1183,0.8314,-0.3775,-1.2378
14032,-0.0698,0.0068,9.8115,0.5289,-0.1847,-5.3211,0.8262,-0.3702,-1.2319
14040,-0.0762,-0.0354,9.8144,0.6671,-0.1140,-5.0376,0.8230,-0.3634,-1.2270
14048,-0.0368,-0.0503,9.8152,0.5618,-0.0731,-5.0759,0.8197,-0.3566,-1.2221
14056,-0.0458,-0.0247,9.8205,0.4292,-0.0446,-5.0672,0.8146,-0.3493,-1.2162
14064,-0.0416,-0.0844,9.8284,0.3904,-0.0947,-4.9122,0.8095,-0.3422,-1.2104
14072,-0.0251,-0.0664,9.8466,0.2279,-0.1533,-5.0173,0.8044,-0.3350,-1.2046
14080,-0.0452,-0.0739,9.8634,0.2139,-0.1560,-5.0032,0.7979,-0.3303,-1.2003
14088,-0.0479,-0.0505,9.8568,0.0698,-0.2732,-5.0830,0.7914,-0.3256,-1.1960
14096,-0.0249,-0.0841,9.8659,0.0947,-0.2786,-5.1219,0.7868,-0.3181,-1.1945
14104,0.0064,-0.0921,9.8591,0.1398,-0.1612,-5.1912,0.7822,-0.3106,-1.1930
14112,-0.0090,-0.0274,9.8410,0.1403,-0.0888,-5.0521,0.7753,-0.3056,-1.1892
14120,-0.0001,-0.0864,9.8347,0.1141,-0.2037,-4.9378,0.7684,-0.2958,-1.1806
14128,0.0170,-0.0377,9.7981,0.1477,-0.3481,-5.0284,0.7663,-0.2861,-1.1759
14136,-0.0194,0.0026,9.8145,0.0465,-0.2463,-4.9071,0.7632,-0.2773,-1.1688
14144,-0.0187,0.0164,9.8190,-0.0769,-0.2396,-4.7218,0.7601,-0.2687,-1.1617
14152,-0.0289,-0.0258,9.8544,-0.1016,-0.3078,-4.8672,0.7628,-0.2624,-1.1589
14160,-0.0337,-0.0211,9.8455,-0.0532,-0.3731,-4.8303,0.7625,-0.2571,-1.1571
14168,-0.0079,-0.1044,9.8629,-0.1616,-0.3555,-4.7844,0.7562,-0.2495,-1.1482
14176,-0.0246,-0.1889,9.8705,-0.1079,-0.3706,-4.7777,0.7545,-0.2419,-1.1416
14184,-0.0161,-0.2484,9.8755,-0.0833,-0.4812,-4.9714,0.7529,-0.2344,-1.1351
14192,-0.0125,-0.2905,9.8755,-0.0917,-0.4722,-4.9059,0.7513,-0.2326,-1.1320
14200,-0.0224,-0.2497,9.8914,-0.1184,-0.4982,-4.8540,0.7497,-0.2308,-1.1288
14208,-0.0282,-0.2621,9.8708,-0.0320,-0.4192,-4.9109,0.7448,-0.2290,-1.1271
14216,-0.0235,-0.2258,9.8767,-0.0720,-0.3862,-4.8134,0.7399,-0.2273,-1.1254
14224,-0.0387,-0.3365,9.8606,-0.0569,-0.3840,-4.9282,0.7350,-0.2256,-1.1237
14232,-0.0471,-0.3488,9.8456,0.0189,-0.3340,-4.9553,0.7296,-0.2196,-1.1200
14240,-0.0419,-0.4064,9.8467,-0.0420,-0.2887,-5.0505,0.7233,-0.2122,-1.1146
14248,-0.0144,-0.4124,9.8448,0.0758,-0.2322,-4.9496,0.7232,-0.2082,-1.1091
14256,-0.0105,-0.4658,9.8619,0.0497,-0.2074,-4.8051,0.7184,-0.1981,-1.1060
14264,-0.0293,-0.4689,9.8468,0.0782,-0.2370,-4.6082,0.7135,-0.1880,-1.1029
14272,-0.0399,-0.3825,9.8404,0.3080,-0.2521,-4.5426,0.7049,-0.1770,-1.0975
14280,-0.0386,-0.3836,9.8232,0.3251,-0.2878,-4.5705,0.6982,-0.1703,-1.0940
14288,-0.0265,-0.3344,9.8054,0.3895,-0.1352,-4.4986,0.6939,-0.1660,-1.0881
14296,-0.0146,-0.3009,9.7984,0.3204,0.1093,-4.4245,0.6897,-0.1618,-1.0822
14304,-0.0065,-0.2418,9.7921,0.3317,0.2765,-4.3349,0.6868,-0.1590,-1.0764
14312,-0.0207,-0.2235,9.7927,0.3158,0.3590,-4.0946,0.6854,-0.1543,-1.0734
14320,-0.0030,-0.1832,9.7851,0.4099,0.3339,-3.9261,0.6769,-0.1520,-1.0671
14328,-0.0011,-0.1185,9.7600,0.3373,0.5659,-3.8210,0.6684,-0.1498,-1.0609
14336,0.0034,-0.0495,9.7477,0.3078,0.5238,-3.6859,0.6599,-0.1476,-1.0546
14344,-0.0144,-0.0357,9.7485,0.3543,0.6035,-3.6820,0.6572,-0.1411,-1.0489
14352,-0.0087,0.0236,9.7182,0.4200,0.5144,-3.7129,0.6544,-0.1346,-1.0431
14360,0.0070,0.0632,9.7373,0.3016,0.6692,-3.7398,0.6503,-0.1282,-1.0408
14368,0.0252,0.0498,9.7308,0.2657,0.7479,-3.7122,0.6461,-0.1218,-1.0384
14376,0.0017,0.0896,9.7250,0.2233,0.7564,-3.6617,0.6420,-0.1155,-1.0360
14384,0.0191,0.0568,9.7621,0.2389,0.7593,-3.5842,0.6336,-0.1096,-1.0298
14392,0.0075,0.0919,9.7660,0.1177,0.7674,-3.5634,0.6276,-0.0967,-1.0246
14400,0.0226,0.0115,9.8033,0.1938,0.8844,-3.5675,0.6216,-0.0872,-1.0195
14408,0.0075,-0.0412,9.8043,0.0693,0.8444,-3.5021,0.6128,-0.0739,-1.0152
14416,-0.0103,-0.0455,9.7946,-0.0738,0.8034,-3.4395,0.6040,-0.0606,-1.0110
14424,0.0069,-0.0814,9.7937,-0.1173,0.7589,-3.3104,0.5996,-0.0527,-1.0073
14432,-0.0026,-0.1443,9.7983,-0.1429,0.5750,-3.0429,0.5937,-0.0433,-1.0036
14440,-0.0021,-0.1138,9.8115,-0.1941,0.4604,-2.9124,0.5921,-0.0383,-1.0028
14448,-0.0067,-0.1013,9.7994,-0.1470,0.5109,-2.5983,0.5872,-0.0286,-0.9986
14456,-0.0135,-0.0043,9.7939,-0.1686,0.4659,-2.7113,0.5823,-0.0189,-0.9945
14464,-0.0475,0.0215,9.8167,-0.1866,0.3321,-2.7207,0.5774,-0.0092,-0.9904
14472,-0.0587,0.0453,9.8300,-0.1532,0.2895,-2.8176,0.5706,-0.0053,-0.9843
14480,-0.0811,0.0464,9.8056,-0.1665,0.3795,-2.9743,0.5639,-0.0014,-0.9783
14488,-0.0767,0.0150,9.8118,-0.0833,0.4442,-2.9669,0.5572,0.0024,-0.9724
14496,-0.0769,-0.0043,9.8078,-0.0997,0.4660,-3.1037,0.5523,0.0105,-0.9645
14504,-0.0935,-0.0258,9.8074,-0.2781,0.4656,-3.2106,0.5476,0.0186,-0.9567
14512,-0.1025,0.0089,9.8130,-0.2300,0.4092,-3.0861,0.5395,0.0247,-0.9532
14520,-0.1025,-0.0171,9.8107,-0.2880,0.3366,-2.9751,0.5347,0.0318,-0.9511
14528,-0.0898,0.0004,9.8160,-0.4128,0.1871,-3.1542,0.5300,0.0388,-0.9490
14536,-0.0851,0.0417,9.7711,-0.3828,0.0976,-3.1176,0.5262,0.0481,-0.9436
14544,-0.1032,0.1151,9.7719,-0.4475,0.0386,-3.0558,0.5224,0.0550,-0.9372
14552,-0.1072,0.1086,9.7617,-0.4373,-0.0072,-3.0261,0.5158,0.0647,-0.9257
14560,-0.1059,0.1851,9.7775,-0.4329,0.0478,-3.0911,0.5088,0.0716,-0.9251
14568,-0.0509,0.1925,9.7987,-0.4954,0.0443,-3.2971,0.5018,0.0784,-0.9245
14576,-0.0458,0.1417,9.8010,-0.3284,0.1370,-3.6462,0.4957,0.0828,-0.9192
14584,-0.0603,0.1505,9.8099,-0.2781,0.1296,-3.7000,0.4920,0.0881,-0.9106
14592,-0.0333,0.1297,9.8152,-0.3447,0.1012,-3.7648,0.4884,0.0934,-0.9020
14600,-0.0254,0.1164,9.8414,-0.3523,0.1941,-3.8294,0.4776,0.0977,-0.8958
14608,-0.0045,0.0838,9.8474,-0.2930,0.0722,-3.5792,0.4669,0.1020,-0.8896
14616,0.0122,0.1167,9.8464,-0.1749,0.0623,-3.5213,0.4562,0.1062,-0.8835
14624,0.0227,0.1333,9.8269,-0.2113,0.0956,-3.5166,0.4503,0.1138,-0.8783
14632,0.0217,0.1274,9.8192,-0.2115,0.1567,-3.4187,0.4444,0.1213,-0.8732
14640,-0.0070,0.1315,9.7995,-0.2516,0.1511,-3.0905,0.4390,0.1236,-0.8699
14648,-0.0106,0.1590,9.7949,-0.2420,0.1671,-3.0353,0.4336,0.1258,-0.8667
14656,0.0193,0.1488,9.7866,-0.2995,0.1051,-2.9665,0.4282,0.1342,-0.8659
14664,-0.0200,0.1623,9.8506,-0.3918,0.0831,-3.0927,0.4181,0.1397,-0.8636
14672,-0.0443,0.0780,9.8439,-0.4054,0.1447,-3.2027,0.4119,0.1490,-0.8604
14680,-0.0576,0.0414,9.8136,-0.4050,0.1770,-3.2679,0.4042,0.1572,-0.8501
14688,-0.0464,0.0460,9.8218,-0.4074,0.1572,-3.2556,0.3966,0.1655,-0.8399
14696,-0.0367,-0.0291,9.8228,-0.3003,0.2663,-3.2252,0.3956,0.1704,-0.8382
14704,-0.0070,-0.0665,9.8027,-0.2779,0.3013,-3.1374,0.3875,0.1766,-0.8365
14712,-0.0065,-0.0088,9.8197,-0.3818,0.3827,-3.2268,0.3822,0.1834,-0.8320
14720,0.0317,-0.0509,9.8605,-0.3985,0.4499,-3.2163,0.3770,0.1901,-0.8274
14728,0.0417,-0.0580,9.8528,-0.4545,0.3835,-3.3795,0.3728,0.1986,-0.8239
14736,0.0262,-0.0038,9.8258,-0.3693,0.2534,-3.3064,0.3667,0.2038,-0.8218
14744,0.0330,0.0010,9.8365,-0.4026,0.2409,-3.3644,0.3605,0.2090,-0.8197
14752,0.0734,0.0432,9.8438,-0.4504,0.3917,-3.4305,0.3545,0.2170,-0.8176
14760,0.0590,0.0403,9.8181,-0.3041,0.3065,-3.4351,0.3484,0.2249,-0.8155
14768,0.0595,0.0273,9.8477,-0.3108,0.2704,-3.2475,0.3423,0.2328,-0.8135
14776,0.0396,0.0114,9.8590,-0.1866,0.0972,-3.2707,0.3325,0.2417,-0.8090
14784,0.0288,-0.0663,9.8465,-0.1879,0.2222,-3.2663,0.3227,0.2505,-0.8046
14792,-0.0070,-0.0473,9.8374,-0.1597,0.1444,-3.0754,0.3153,0.2592,-0.7978
14800,-0.0270,-0.0388,9.8875,0.0112,0.0541,-3.1675,0.3079,0.2679,-0.7911
14808,-0.0046,0.0408,9.8781,0.0040,0.0450,-3.1276,0.3072,0.2700,-0.7886
14816,-0.0248,0.0478,9.8961,-0.1682,0.1403,-3.1560,0.2999,0.2725,-0.7819
14824,-0.0195,0.0928,9.8978,-0.1863,0.2181,-3.1700,0.2987,0.2787,-0.7790
14832,-0.0164,0.1021,9.8961,-0.2542,0.2365,-3.1059,0.2928,0.2874,-0.7747
14840,0.0123,0.0645,9.8618,-0.1298,0.1501,-3.0900,0.2870,0.2959,-0.7704
14848,0.0041,0.1275,9.8399,-0.2135,0.1688,-3.0082,0.2839,0.3064,-0.7690
14856,0.0185,0.0802,9.8578,-0.1789,0.2427,-2.8766,0.2776,0.3097,-0.7642
14864,0.0002,0.0934,9.8713,-0.2951,0.2361,-2.8787,0.2718,0.3120,-0.7638
14872,-0.0014,0.1496,9.8699,-0.2063,0.1310,-2.7287,0.2660,0.3143,-0.7633
14880,-0.0074,0.1899,9.8399,-0.1667,0.0252,-2.8067,0.2602,0.3165,-0.7628
14888,-0.0128,0.1203,9.8529,-0.1394,-0.0332,-2.8892,0.2596,0.3231,-0.7595
14896,0.0042,0.0987,9.8168,-0.1081,-0.0038,-2.8348,0.2591,0.3296,-0.7563
14904,-0.0142,0.0683,9.8346,-0.0994,0.0429,-2.7214,0.2542,0.3370,-0.7520
14912,-0.0099,0.0093,9.8217,-0.1151,-0.0990,-2.7570,0.2494,0.3444,-0.7478
14920,-0.0219,0.0361,9.8427,-0.0928,-0.1734,-2.8604,0.2446,0.3517,-0.7436
14928,-0.0154,0.1046,9.8395,0.0325,-0.2125,-2.7779,0.2417,0.3619,-0.7380
14936,-0.0041,0.2075,9.8493,0.2164,-0.3193,-2.8297,0.2384,0.3716,-0.7315
14944,0.0598,0.2614,9.8695,0.1308,-0.3467,-3.0899,0.2350,0.3750,-0.7288
14952,0.0681,0.3458,9.8523,0.2224,-0.3649,-3.4080,0.2317,0.3785,-0.7261
14960,0.0582,0.3520,9.8495,0.2113,-0.2917,-3.4856,0.2284,0.3904,-0.7258
14968,0.0420,0.4063,9.8447,0.2540,-0.3310,-3.5064,0.2237,0.3947,-0.7193
14976,0.0465,0.3052,9.8585,0.2948,-0.2379,-3.7610,0.2185,0.4009,-0.7124
14984,0.1043,0.2141,9.8743,0.3178,-0.0689,-4.1991,0.2133,0.4070,-0.7069
14992,0.0964,0.1836,9.8489,0.2652,-0.0166,-4.2741,0.2081,0.4131,-0.7014
15000,0.0848,0.0964,9.8810,0.2869,-0.2065,-4.2791,0.2044,0.4206,-0.6983
15008,0.0834,0.0753,9.9115,0.2623,-0.1589,-4.3319,0.1974,0.4262,-0.6910
15016,0.0893,0.0006,9.8971,0.1694,-0.1933,-4.1930,0.1942,0.4341,-0.6860
15024,0.0734,0.0742,9.8691,0.1366,-0.1809,-4.2763,0.1910,0.4420,-0.6811
15032,0.0758,0.0256,9.8970,0.1852,-0.0571,-4.1292,0.1878,0.4498,-0.6762
15040,0.0743,0.0609,9.8900,0.1944,-0.2373,-4.0925,0.1822,0.4600,-0.6737
15048,0.0597,0.1406,9.8685,0.0539,-0.2710,-4.1242,0.1767,0.4701,-0.6712
15056,0.0416,0.0966,9.8724,0.1461,-0.1992,-4.0531,0.1693,0.4797,-0.6658
15064,0.0547,0.1570,9.8549,0.1490,-0.2692,-4.0091,0.1619,0.4893,-0.6605
15072,0.0689,0.1302,9.8236,0.1544,-0.2028,-4.1190,0.1541,0.4969,-0.6557
15080,0.0216,0.0799,9.7885,0.1543,-0.2113,-4.1948,0.1496,0.5045,-0.6518
15088,0.0257,0.0590,9.7535,0.1968,-0.2701,-4.1260,0.1460,0.5116,-0.6442
15096,0.0231,0.0187,9.7368,0.2534,-0.3850,-3.9722,0.1454,0.5206,-0.6465
15104,-0.0025,0.1074,9.7181,0.2063,-0.1989,-4.0197,0.1447,0.5295,-0.6488
15112,-0.0048,0.0438,9.6803,0.2626,0.0191,-3.5772,0.1397,0.5412,-0.6445
15120,-0.0364,-0.0133,9.6915,0.3403,0.0782,-3.2660,0.1291,0.5505,-0.6369
15128,-0.0409,-0.0376,9.7045,0.4947,-0.0226,-3.3098,0.1261,0.5602,-0.6378
15136,-0.0385,0.0747,9.7130,0.4397,-0.1057,-3.3197,0.1227,0.5656,-0.6326
15144,-0.0282,0.0129,9.7571,0.4964,-0.1131,-2.9478,0.1192,0.5710,-0.6274
15152,-0.0540,-0.0112,9.7342,0.6626,-0.0909,-2.7281,0.1200,0.5811,-0.6255
15160,-0.0463,0.0503,9.7399,0.6403,-0.2243,-2.5367,0.1209,0.5912,-0.6236
15168,-0.0539,0.0505,9.7510,0.8242,-0.1785,-2.3697,0.1089,0.6012,-0.6208
15176,-0.0649,0.0068,9.7505,0.7814,-0.1668,-2.1967,0.0970,0.6111,-0.6180
15184,-0.0785,-0.0732,9.7856,0.6979,-0.1635,-2.0153,0.0851,0.6210,-0.6153
15192,-0.0644,-0.1178,9.7778,0.5033,-0.1444,-1.7537,0.0846,0.6319,-0.6139
15200,-0.0772,-0.0684,9.7447,0.6319,-0.0248,-1.5196,0.0842,0.6426,-0.6126
15208,-0.0673,-0.0729,9.7795,0.5415,0.1402,-1.3358,0.0813,0.6510,-0.6112
15216,-0.0620,-0.0551,9.7845,0.4524,0.1914,-1.0613,0.0743,0.6593,-0.6099
15224,-0.0622,-0.0851,9.7763,0.4873,0.1683,-0.8815,0.0672,0.6719,-0.6071
15232,-0.0770,-0.0292,9.7461,0.4379,0.0475,-0.8482,0.0654,0.6810,-0.6058
15240,-0.0526,-0.0188,9.7848,0.3560,-0.0359,-0.6484,0.0589,0.6916,-0.6035
15248,-0.0541,0.0084,9.8363,0.3710,-0.0464,-0.5960,0.0567,0.7040,-0.6051
15256,-0.0724,0.0184,9.7862,0.3241,-0.2218,-0.3645,0.0545,0.7163,-0.6066
15264,-0.0643,0.0102,9.8248,0.2472,-0.1894,-0.3752,0.0537,0.7295,-0.6058
15272,-0.0671,0.0178,9.8114,0.3496,-0.3159,-0.3267,0.0548,0.7403,-0.6087
15280,-0.0659,-0.0560,9.7669,0.2983,-0.3328,-0.4964,0.0503,0.7496,-0.6093
15288,-0.0598,-0.1282,9.7608,0.3319,-0.3836,-0.4053,0.0457,0.7589,-0.6099
15296,-0.0511,-0.1931,9.7913,0.2946,-0.3202,-0.3368,0.0412,0.7681,-0.6104
15304,-0.0638,-0.1639,9.8162,0.1977,-0.3023,-0.1674,0.0386,0.7791,-0.6129
15312,-0.0397,-0.0696,9.7977,0.0650,-0.3118,-0.1333,0.0360,0.7901,-0.6154
15320,-0.0625,-0.1186,9.7814,0.0554,-0.4062,-0.0181,0.0320,0.8001,-0.6155
15328,-0.0549,-0.0095,9.7443,0.0356,-0.4085,-0.0439,0.0280,0.8101,-0.6155
15336,-0.0832,0.0205,9.7131,-0.0180,-0.3947,-0.2019,0.0241,0.8199,-0.6156
15344,-0.0750,0.0430,9.6802,0.0880,-0.4588,-0.3957,0.0244,0.8317,-0.6186
15352,-0.0904,0.0725,9.6382,0.0854,-0.3788,-0.6503,0.0223,0.8381,-0.6201
15360,-0.0811,0.0624,9.6786,0.1603,-0.3556,-0.7125,0.0227,0.8483,-0.6182
15368,-0.0458,0.0550,9.6982,0.1332,-0.3467,-0.6039,0.0230,0.8599,-0.6197
15376,-0.0270,0.0528,9.6718,0.0247,-0.3650,-0.6468,0.0234,0.8714,-0.6212
15384,-0.0105,0.0837,9.6752,-0.0098,-0.3504,-0.5998,0.0213,0.8768,-0.6242
15392,-0.0334,0.1194,9.6865,0.0639,-0.4244,-0.5308,0.0207,0.8868,-0.6280
15400,-0.0268,0.0738,9.6986,0.0224,-0.4713,-0.4756,0.0169,0.8963,-0.6290
15408,-0.0395,0.1518,9.6658,-0.0466,-0.4760,-0.5240,0.0130,0.9090,-0.6291
15416,0.0074,0.2247,9.7021,-0.1633,-0.4966,-0.5784,0.0091,0.9217,-0.6291
15424,0.0119,0.2001,9.7172,-0.0749,-0.4603,-0.6170,0.0053,0.9343,-0.6292
15432,0.0010,0.1809,9.7204,-0.1024,-0.5589,-0.7686,0.0014,0.9445,-0.6326
15440,0.0167,0.1454,9.7616,-0.0753,-0.5331,-0.6736,-0.0024,0.9547,-0.6359
15448,0.0154,0.1657,9.7456,-0.0734,-0.2579,-0.5454,-0.0062,0.9648,-0.6393
15456,0.0205,0.2036,9.7989,0.0644,-0.2986,-0.4442,-0.0099,0.9786,-0.6436
15464,0.0289,0.1909,9.8558,0.0975,-0.2843,-0.4300,-0.0137,0.9924,-0.6478
15472,0.0464,0.1608,9.8586,0.0305,-0.2626,-0.5018,-0.0160,1.0075,-0.6535
15480,0.0632,0.2566,9.7810,-0.0255,-0.3965,-0.5252,-0.0160,1.0163,-0.6592
15488,0.0538,0.2166,9.8273,0.0649,-0.5325,-0.5821,-0.0159,1.0251,-0.6649
15496,0.0549,0.2059,9.8519,0.0153,-0.7000,-0.9299,-0.0163,1.0367,-0.6662
15504,0.0399,0.2509,9.8264,0.0932,-0.7161,-1.1239,-0.0167,1.0473,-0.6723
15512,0.0619,0.1891,9.8297,-0.0056,-0.6915,-1.2640,-0.0152,1.0550,-0.6751
15520,0.0312,0.2644,9.8636,-0.0067,-0.6759,-1.1980,-0.0128,1.0683,-0.6774
15528,0.0463,0.2173,9.9017,0.0669,-0.7464,-1.1669,-0.0103,1.0815,-0.6797
15536,0.0348,0.1806,9.9064,0.0625,-0.7152,-1.6171,-0.0140,1.0970,-0.6829
15544,0.0637,0.1970,9.9390,0.0024,-0.7119,-2.0610,-0.0116,1.1086,-0.6885
15552,0.0743,0.1158,9.9712,-0.1831,-0.6182,-2.2534,-0.0134,1.1173,-0.6959
15560,0.0456,0.0883,9.9307,-0.1818,-0.4859,-2.5068,-0.0133,1.1288,-0.6991
15568,0.0160,0.0720,9.9195,-0.1379,-0.5113,-2.6371,-0.0132,1.1403,-0.7022
15576,0.0129,0.0724,9.8752,-0.0213,-0.5224,-2.6791,-0.0131,1.1516,-0.7054
15584,0.0311,0.0695,9.8561,-0.0751,-0.6369,-2.5912,-0.0125,1.1624,-0.7127
15592,0.0416,0.0642,9.8325,-0.1159,-0.5944,-2.4645,-0.0119,1.1732,-0.7201
15600,0.0561,0.0962,9.8297,-0.1255,-0.5618,-2.4660,-0.0132,1.1820,-0.7265
15608,0.0342,0.0829,9.8081,-0.1108,-0.4186,-2.4567,-0.0145,1.1907,-0.7328
15616,0.0021,0.0795,9.7972,-0.0246,-0.4817,-2.4746,-0.0158,1.1994,-0.7391
15624,0.0039,0.0686,9.8183,-0.1716,-0.2327,-2.5743,-0.0157,1.2070,-0.7492
15632,-0.0030,0.1167,9.7973,-0.2028,-0.2026,-2.6670,-0.0155,1.2156,-0.7578
15640,-0.0453,0.1273,9.7638,-0.2140,-0.2298,-2.8543,-0.0154,1.2241,-0.7663
15648,-0.0708,0.1607,9.7124,-0.3527,-0.2824,-2.8840,-0.0152,1.2339,-0.7749
15656,-0.0998,0.3270,9.7193,-0.1334,-0.3168,-2.8005,-0.0156,1.2480,-0.7819
15664,-0.0691,0.3637,9.8038,-0.0729,-0.2190,-2.8753,-0.0216,1.2530,-0.7837
15672,-0.0809,0.2812,9.7974,-0.0951,-0.3388,-2.7522,-0.0252,1.2603,-0.7911
15680,-0.0461,0.3049,9.8714,0.0196,-0.3254,-3.1357,-0.0288,1.2675,-0.7985
15688,-0.0168,0.3551,9.8813,0.0120,-0.3685,-3.4252,-0.0262,1.2771,-0.8021
15696,0.0146,0.3048,9.8580,0.0314,-0.4285,-3.5980,-0.0255,1.2885,-0.8099
15704,0.0395,0.2529,9.8792,-0.0593,-0.3284,-3.7606,-0.0249,1.2999,-0.8176
15712,0.0446,0.1787,9.8611,-0.0448,-0.3315,-3.7507,-0.0284,1.3102,-0.8291
15720,0.0397,0.2308,9.8497,0.0438,-0.3690,-3.9786,-0.0320,1.3204,-0.8406
15728,0.0494,0.1628,9.8749,0.0165,-0.3463,-3.9912,-0.0356,1.3307,-0.8520
15736,-0.0124,0.1540,9.8308,0.1263,-0.3805,-4.2113,-0.0391,1.3384,-0.8633
15744,-0.0255,0.1434,9.8273,0.1061,-0.4692,-4.5257,-0.0426,1.3462,-0.8745
15752,-0.0292,0.0741,9.8542,0.0067,-0.3328,-4.6077,-0.0414,1.3529,-0.8824
15760,-0.0562,0.0683,9.8503,0.1117,-0.4209,-4.7582,-0.0402,1.3596,-0.8902
15768,0.0008,0.1573,9.8427,0.0788,-0.3772,-4.8513,-0.0437,1.3686,-0.8994
15776,0.0047,0.2001,9.8440,0.1299,-0.3008,-5.0124,-0.0458,1.3785,-0.9071
15784,-0.0078,0.2548,9.8816,0.1175,-0.3077,-5.1318,-0.0455,1.3774,-0.9162
15792,0.0046,0.2195,9.8860,0.0896,-0.2716,-5.3740,-0.0452,1.3839,-0.9262
15800,-0.0252,0.2040,9.8868,-0.0037,-0.3038,-5.3949,-0.0449,1.3903,-0.9361
15808,-0.0289,0.1777,9.9208,-0.1222,-0.2572,-5.3003,-0.0469,1.3944,-0.9469
15816,-0.0614,0.2641,9.8905,-0.1076,-0.3327,-5.4284,-0.0528,1.3970,-0.9577
15824,-0.0781,0.2616,9.8631,0.0104,-0.2795,-5.4416,-0.0515,1.3957,-0.9627
15832,-0.0604,0.2594,9.8771,0.0965,-0.1220,-5.6782,-0.0540,1.3954,-0.9648
15840,-0.0412,0.2246,9.8842,0.1842,-0.1421,-5.8458,-0.0565,1.3950,-0.9669
15848,-0.0106,0.1840,9.8834,0.1028,-0.1852,-5.8408,-0.0575,1.3975,-0.9823
15856,0.0212,0.1455,9.8922,-0.0098,0.0455,-5.7799,-0.0586,1.4000,-0.9975
15864,0.0459,0.1029,9.9393,-0.0001,0.2181,-5.7911,-0.0578,1.3995,-1.0064
15872,0.0764,0.1722,9.9638,0.1212,0.1512,-5.7698,-0.0569,1.3991,-1.0153
15880,0.0635,0.0833,9.9613,0.2238,-0.0701,-5.9281,-0.0561,1.3986,-1.0242
15888,0.0285,0.0425,9.8802,0.3140,0.0169,-5.9541,-0.0600,1.3991,-1.0353
15896,0.0133,-0.0532,9.8424,0.4562,0.0014,-5.8856,-0.0690,1.3905,-1.0468
15904,0.0114,0.0019,9.8574,0.3975,0.2160,-6.0975,-0.0710,1.3857,-1.0549
15912,0.0088,-0.0016,9.8696,0.4294,0.3065,-6.0441,-0.0729,1.3809,-1.0630
15920,0.0209,-0.1022,9.8683,0.6465,0.1050,-5.9450,-0.0753,1.3742,-1.0690
15928,0.0370,-0.1185,9.8039,0.6622,-0.0903,-5.7277,-0.0763,1.3680,-1.0732
15936,0.0337,-0.0326,9.7797,0.5865,-0.1891,-5.5704,-0.0773,1.3656,-1.0763
15944,0.0494,0.0451,9.7970,0.6048,-0.4702,-5.5534,-0.0792,1.3617,-1.0817
15952,0.0696,0.0753,9.7849,0.5956,-0.4350,-5.3292,-0.0811,1.3579,-1.0871
15960,0.0764,0.1505,9.7985,0.7095,-0.2920,-5.2427,-0.0849,1.3559,-1.0920
15968,0.0754,0.1848,9.8004,0.4824,-0.4086,-5.4427,-0.0906,1.3511,-1.0949
15976,0.0584,0.1685,9.7770,0.5933,-0.2001,-5.6499,-0.0971,1.3462,-1.1010
15984,0.0235,0.0572,9.7836,0.6299,-0.3394,-5.8455,-0.1037,1.3414,-1.1072
15992,-0.0190,-0.0381,9.7227,0.6090,-0.4273,-6.2777,-0.1103,1.3365,-1.1132
16000,-0.0657,-0.0582,9.6753,0.7863,-0.6607,-6.4511,-0.1149,1.3359,-1.1116
16008,-0.0797,-0.1070,9.6456,0.6865,-0.7105,-6.4703,-0.1195,1.3353,-1.1100
16016,-0.0727,-0.1343,9.6779,0.7831,-0.9021,-6.4352,-0.1217,1.3347,-1.1131
16024,-0.0874,-0.0141,9.6625,0.9048,-0.8401,-6.2071,-0.1240,1.3340,-1.1161
16032,-0.1308,-0.0507,9.6646,1.0051,-1.0394,-6.0449,-0.1262,1.3334,-1.1191
16040,-0.1226,-0.0127,9.6983,1.1171,-1.0780,-5.8818,-0.1270,1.3284,-1.1240
16048,-0.1594,-0.0922,9.6587,1.1069,-1.1282,-5.6032,-0.1325,1.3258,-1.1250
16056,-0.1595,-0.2220,9.7522,0.9344,-1.0243,-5.3021,-0.1370,1.3190,-1.1278
16064,-0.2042,-0.2301,9.7648,1.0841,-1.0448,-4.8222,-0.1415,1.3121,-1.1306
16072,-0.2628,-0.2926,9.7393,0.9740,-0.9872,-4.3499,-0.1446,1.3157,-1.1339
16080,-0.2745,-0.3291,9.7391,1.0553,-0.8894,-3.8289,-0.1491,1.3136,-1.1342
16088,-0.2932,-0.3320,9.7247,0.9811,-0.8759,-3.0028,-0.1484,1.3147,-1.1331
16096,-0.2564,-0.3361,9.7646,1.1582,-0.6337,-2.5434,-0.1562,1.3107,-1.1362
16104,-0.2044,-0.2714,9.7774,1.1061,-0.5620,-1.8801,-0.1640,1.3066,-1.1393
16112,-0.1947,-0.0945,9.7671,0.9870,-0.5308,-1.6112,-0.1675,1.3068,-1.1443
16120,-0.1591,-0.0086,9.7592,0.9371,-0.6343,-1.5086,-0.1709,1.3070,-1.1491
16128,-0.1578,-0.0147,9.7644,0.7614,-0.6479,-1.7093,-0.1739,1.3081,-1.1535
16136,-0.1617,-0.0125,9.7690,0.8441,-0.5463,-1.7625,-0.1769,1.3091,-1.1578
16144,-0.1633,0.0018,9.7504,0.8111,-0.3985,-1.6800,-0.1798,1.3102,-1.1621
16152,-0.1662,-0.0486,9.7373,0.8569,-0.2064,-1.5958,-0.1904,1.3103,-1.1668
16160,-0.1570,-0.2349,9.7249,0.8820,-0.3535,-1.6193,-0.2009,1.3104,-1.1715
16168,-0.1668,-0.2026,9.7114,0.9834,-0.2807,-1.4737,-0.2089,1.3081,-1.1761
16176,-0.1635,-0.1625,9.7357,0.9683,-0.4138,-1.4225,-0.2170,1.3057,-1.1806
16184,-0.1267,-0.1672,9.7139,0.7112,-0.2265,-1.1869,-0.2212,1.3034,-1.1828
16192,-0.0857,-0.1791,9.7511,0.6361,-0.1966,-1.1856,-0.2241,1.3006,-1.1868
16200,-0.0978,-0.1062,9.7088,0.6655,-0.2481,-1.0937,-0.2306,1.2959,-1.1903
16208,-0.0427,0.0118,9.7665,0.5017,-0.3639,-1.2138,-0.2363,1.2950,-1.1876
16216,-0.0001,0.1541,9.7833,0.4384,-0.4961,-1.2114,-0.2419,1.2940,-1.1848
16224,0.0576,0.0992,9.8818,0.4631,-0.3771,-1.5423,-0.2470,1.2936,-1.1873
16232,0.0806,0.0268,9.9222,0.3428,-0.3966,-1.7815,-0.2544,1.2931,-1.1864
16240,0.0481,0.0005,9.8758,0.4278,-0.5780,-1.7862,-0.2623,1.2931,-1.1897
16248,-0.0295,-0.1026,9.8111,0.3650,-0.6048,-1.7986,-0.2702,1.2930,-1.1931
16256,-0.0738,-0.4141,9.7457,0.3636,-0.3424,-1.7813,-0.2780,1.2930,-1.1963
16264,-0.0729,-0.6380,9.7271,0.1890,-0.1315,-1.9620,-0.2854,1.2901,-1.2000
16272,-0.1204,-0.7697,9.6533,0.1553,-0.0764,-2.0361,-0.2927,1.2872,-1.2037
16280,-0.0444,-0.4232,9.8912,0.1845,0.0829,-1.9283,-0.3062,1.2871,-1.2068
16288,-0.0035,-1.0554,10.1193,-0.0090,-0.0581,-1.4759,-0.3195,1.2870,-1.2100
16296,-0.2425,-0.8011,9.7012,-0.1673,-0.0170,-1.3927,-0.3329,1.2869,-1.2130
16304,-0.1226,-0.1511,9.9605,0.0786,0.0464,-1.3344,-0.3428,1.2806,-1.2170
16312,-0.0446,-0.8679,10.1438,-0.2142,-0.4130,-1.1480,-0.3484,1.2762,-1.2205
16320,-0.0524,-1.4345,10.1223,-0.4782,-0.1297,-0.7910,-0.3536,1.2714,-1.2221
16328,-0.0121,-1.3601,10.1417,-0.6427,-0.0427,-0.7537,-0.3634,1.2737,-1.2250
16336,-0.0357,-1.3861,10.0494,-0.3707,0.0324,-0.5767,-0.3732,1.2759,-1.2279
16344,-0.0439,-1.2808,9.9618,-0.2999,0.1283,-0.5781,-0.3810,1.2668,-1.2289
16352,-0.0017,-1.0315,9.9741,-0.3575,0.1293,-0.3741,-0.3921,1.2600,-1.2308
16360,-0.0213,-0.8319,9.9460,-0.1032,0.0876,-0.4056,-0.4041,1.2551,-1.2298
16368,0.0571,-0.7374,10.0167,-0.1401,-0.0163,-0.4625,-0.4142,1.2484,-1.2288
16376,0.0501,-0.5526,9.9814,-0.1780,-0.1076,-0.5276,-0.4242,1.2416,-1.2282
16384,0.0324,-0.5793,9.9741,-0.1717,0.0183,-0.6964,-0.4266,1.2392,-1.2286
16392,0.0382,-0.6040,9.9870,-0.1122,0.0562,-0.9086,-0.4337,1.2367,-1.2290
16400,0.0357,-0.5193,10.0188,-0.2287,0.0337,-1.3354,-0.4407,1.2342,-1.2293
16408,-0.0007,-0.4987,9.9682,-0.1134,0.0255,-1.6156,-0.4477,1.2317,-1.2296
16416,-0.0249,-0.6627,9.9262,-0.2885,0.1136,-1.7476,-0.4571,1.2255,-1.2275
16424,-0.0692,-0.7756,9.8662,-0.2213,0.3659,-1.7031,-0.4664,1.2192,-1.2254
16432,-0.1102,-0.7721,9.8653,0.0510,0.4072,-1.5085,-0.4785,1.2139,-1.2294
16440,-0.1318,-0.6978,9.8157,-0.0406,0.3160,-1.3118,-0.4905,1.2086,-1.2334
16448,-0.1463,-0.6484,9.7781,-0.1709,0.1728,-1.2224,-0.5025,1.2033,-1.2374
16456,-0.1394,-0.5649,9.7924,-0.1488,0.2972,-1.0436,-0.5102,1.1970,-1.2338
16464,-0.1154,-0.5682,9.8276,-0.1011,0.4882,-0.9045,-0.5207,1.1903,-1.2320
16472,-0.0627,-0.2528,9.7916,0.0033,0.3348,-0.7502,-0.5274,1.1869,-1.2307
16480,-0.0807,-0.3204,9.7522,-0.1609,0.4307,-0.9040,-0.5368,1.1826,-1.2336
16488,-0.0659,-0.1315,9.7967,-0.2753,0.3305,-0.9604,-0.5462,1.1783,-1.2366
16496,-0.0953,0.1073,9.8047,-0.1073,0.3707,-1.1290,-0.5556,1.1740,-1.2380
16504,-0.1530,0.0432,9.6825,0.0213,0.2331,-1.1063,-0.5644,1.1668,-1.2366
16512,-0.1249,0.0468,9.7455,-0.0103,0.1042,-0.9725,-0.5723,1.1578,-1.2404
16520,-0.0723,-0.0635,9.7260,0.0021,0.0262,-0.6072,-0.5825,1.1525,-1.2408
16528,-0.0137,-0.0561,9.7329,0.0779,-0.0536,-0.5113,-0.5926,1.1473,-1.2413
16536,-0.0044,0.0530,9.7515,0.1958,-0.1593,-0.3422,-0.6027,1.1421,-1.2417
16544,0.0077,0.0993,9.7332,0.0605,-0.0471,-0.3858,-0.6170,1.1373,-1.2401
16552,0.0027,0.1458,9.7481,0.2164,-0.1104,-0.5129,-0.6313,1.1326,-1.2386
16560,-0.0237,0.0858,9.6796,0.2696,-0.0030,-0.4717,-0.6421,1.1349,-1.2385
16568,-0.0262,0.0079,9.6650,0.0164,0.1531,-0.6937,-0.6529,1.1373,-1.2383
16576,-0.0485,-0.1105,9.6900,-0.0097,-0.0230,-0.9433,-0.6637,1.1396,-1.2382
16584,0.0311,-0.1042,9.7377,-0.0480,-0.1167,-0.9660,-0.6743,1.1334,-1.2413
16592,0.0429,-0.1071,9.7399,0.1927,-0.1503,-0.7637,-0.6831,1.1258,-1.2402
16600,0.1024,0.0528,9.7131,-0.0998,-0.0624,-0.7782,-0.6917,1.1182,-1.2390
16608,0.1458,0.1516,9.7395,0.0738,0.0082,-1.2401,-0.7056,1.1149,-1.2373
16616,0.1026,0.3001,9.6600,0.0346,0.0172,-1.6365,-0.7198,1.1120,-1.2352
16624,0.0457,0.4095,9.6322,0.0370,-0.0090,-2.1969,-0.7240,1.1059,-1.2359
16632,0.0198,0.3900,9.6581,-0.0007,0.1340,-2.2420,-0.7353,1.1011,-1.2309
16640,-0.0288,0.4663,9.6619,0.0033,-0.0225,-2.4906,-0.7466,1.0964,-1.2258
16648,-0.1155,0.4997,9.6490,0.3697,0.0491,-2.5256,-0.7653,1.0893,-1.2265
16656,-0.0961,0.3860,9.7247,0.2375,-0.0051,-2.7564,-0.7796,1.0832,-1.2224
16664,-0.1008,0.2763,9.6903,0.4070,-0.0196,-2.8998,-0.7939,1.0771,-1.2183
16672,-0.0677,0.2240,9.6820,0.3879,0.0252,-2.9489,-0.8052,1.0752,-1.2209
16680,-0.0168,0.2295,9.7131,0.3455,0.0574,-2.6759,-0.8165,1.0734,-1.2234
16688,0.0014,0.1542,9.6684,0.3077,-0.0559,-2.4842,-0.8276,1.0715,-1.2259
16696,-0.0271,0.0789,9.6799,0.1248,0.0332,-2.4875,-0.8416,1.0692,-1.2231
16704,-0.0662,-0.0704,9.6940,0.0460,0.1504,-2.0933,-0.8554,1.0669,-1.2203
16712,-0.0938,-0.1171,9.7431,0.1519,0.2437,-1.5004,-0.8687,1.0626,-1.2181
16720,-0.1179,-0.1798,9.7379,0.4078,0.1250,-1.2267,-0.8819,1.0584,-1.2158
16728,-0.0850,-0.1460,9.7319,0.1966,0.2008,-0.7277,-0.8992,1.0594,-1.2111
16736,-0.0689,-0.1335,9.7373,0.1946,0.2147,-0.4558,-0.9132,1.0528,-1.2111
16744,-0.0215,-0.1305,9.7801,0.2834,0.1906,-0.1291,-0.9204,1.0486,-1.2065
16752,-0.0411,-0.1601,9.7732,0.3096,0.2608,-0.0914,-0.9352,1.0411,-1.2065
16760,-0.0342,-0.0188,9.8107,0.3987,0.3521,0.1713,-0.9499,1.0336,-1.2065
16768,-0.0175,-0.1305,9.7946,0.3292,0.4313,0.2572,-0.9611,1.0304,-1.2061
16776,0.0054,-0.0421,9.8146,0.2974,0.2884,0.0727,-0.9723,1.0319,-1.2042
16784,-0.0413,-0.0578,9.8021,0.3576,0.1784,-0.0531,-0.9844,1.0296,-1.2013
16792,-0.0576,-0.1890,9.7722,0.4766,0.1958,-0.1387,-0.9963,1.0250,-1.1985
16800,-0.0373,-0.1734,9.8467,0.3077,0.1032,-0.3059,-1.0082,1.0203,-1.1932
16808,-0.0285,-0.1288,9.8722,0.3515,0.0973,-0.6205,-1.0220,1.0171,-1.1880
16816,-0.0583,-0.0970,9.8502,0.2441,0.0864,-0.8626,-1.0356,1.0139,-1.1828
16824,-0.0429,-0.0460,9.8476,0.3547,0.2012,-0.8808,-1.0492,1.0107,-1.1809
16832,-0.0668,0.0380,9.8188,0.2418,0.2257,-1.1382,-1.0626,1.0074,-1.1790
16840,-0.0634,0.0029,9.8479,0.4111,0.2118,-1.0910,-1.0760,1.0042,-1.1771
16848,-0.0858,0.1136,9.8633,0.5918,0.2091,-1.0566,-1.0865,0.9972,-1.1695
16856,0.0146,0.1027,10.0598,0.7965,-0.0067,-1.2823,-1.0969,0.9903,-1.1619
16864,0.0836,0.1475,10.1566,0.7389,0.0215,-0.8742,-1.1082,0.9895,-1.1614
16872,0.0304,-0.3932,10.0310,0.3692,0.0458,-1.0172,-1.1194,0.9887,-1.1609
16880,0.0783,-0.9184,10.3064,0.2503,-0.1629,-1.4153,-1.1329,0.9836,-1.1561
16888,-0.0313,0.3668,10.3829,0.4647,0.0242,-1.5027,-1.1454,0.9809,-1.1528
16896,-0.0436,-0.4079,10.0263,0.1603,-0.0769,-1.9116,-1.1606,0.9810,-1.1499
16904,0.0014,-1.2287,10.0192,-0.1841,-0.2163,-1.4866,-1.1729,0.9845,-1.1465
16912,0.1723,-1.5492,10.4114,-0.6148,-0.2109,-1.1842,-1.1852,0.9879,-1.1432
16920,-0.0497,-1.3017,9.9432,-0.3706,-0.4350,-1.2870,-1.1983,0.9852,-1.1408
16928,0.0313,-1.9847,10.1440,-0.7131,-0.8307,-1.5267,-1.2109,0.9820,-1.1389
16936,0.2586,-1.3792,10.5703,-0.4807,-1.1291,-1.7212,-1.2286,0.9755,-1.1388
16944,0.2612,-1.9227,10.4746,-0.6931,-1.1531,-1.5872,-1.2462,0.9690,-1.1387
16952,0.2530,-1.6552,10.4672,-0.7655,-1.1787,-1.7844,-1.2637,0.9625,-1.1387
16960,0.2064,-1.4026,10.4242,-0.7041,-1.0672,-2.0903,-1.2778,0.9598,-1.1339
16968,0.1652,-1.1764,10.3064,-0.6000,-0.9686,-2.2254,-1.2918,0.9571,-1.1290
16976,0.0955,-1.1201,10.2745,-0.6791,-0.9890,-2.5601,-1.3039,0.9525,-1.1271
16984,0.0311,-1.0519,10.1664,-0.7308,-0.9204,-2.7467,-1.3158,0.9479,-1.1251
16992,0.0157,-1.0148,10.0936,-0.6789,-0.8469,-2.9278,-1.3277,0.9434,-1.1231
17000,-0.0297,-0.9352,10.0041,-0.4800,-0.7819,-2.9304,-1.3400,0.9393,-1.1159
17008,-0.0025,-0.7794,9.9873,-0.4737,-0.7304,-3.0582,-1.3545,0.9414,-1.1135
17016,-0.0594,-0.7741,9.9489,-0.5371,-0.7399,-2.9297,-1.3690,0.9387,-1.1134
17024,-0.0758,-0.6933,9.8877,-0.4883,-0.7729,-2.9509,-1.3834,0.9361,-1.1133
17032,-0.0825,-0.6744,9.8906,-0.4417,-0.6471,-3.0431,-1.3953,0.9358,-1.1099
17040,-0.0994,-0.7114,9.8436,-0.4131,-0.5749,-3.1366,-1.4171,0.9350,-1.1069
17048,-0.1006,-0.6912,9.8093,-0.4604,-0.3858,-2.9540,-1.4307,0.9352,-1.0993
17056,-0.1331,-0.6096,9.8274,-0.4070,-0.3410,-2.6888,-1.4452,0.9344,-1.1020
17064,-0.1138,-0.5772,9.8274,-0.5693,-0.3435,-2.4805,-1.4595,0.9337,-1.1047
17072,-0.0813,-0.4960,9.8648,-0.5164,-0.3992,-2.4546,-1.4761,0.9315,-1.1041
17080,-0.0902,-0.4753,9.8959,-0.5006,-0.3164,-2.3979,-1.4926,0.9293,-1.1035
17088,-0.0504,-0.3519,9.8584,-0.3067,-0.4426,-2.4476,-1.5056,0.9285,-1.1053
17096,-0.0349,-0.3317,9.8199,-0.3774,-0.5740,-2.6632,-1.5186,0.9277,-1.1070
17104,-0.0427,-0.2647,9.8170,-0.5009,-0.5796,-2.5626,-1.5315,0.9269,-1.1088
17112,-0.0133,-0.2200,9.8372,-0.5018,-0.5503,-2.7652,-1.5461,0.9266,-1.1053
17120,0.0269,-0.1910,9.8977,-0.4972,-0.6343,-2.9188,-1.5607,0.9263,-1.1018
17128,0.0934,-0.2039,9.9052,-0.5569,-0.6079,-2.9271,-1.5732,0.9203,-1.0987
17136,0.0493,-0.1983,9.8773,-0.6566,-0.5801,-2.9084,-1.5857,0.9143,-1.0957
17144,0.0125,-0.2105,9.8402,-0.6106,-0.4707,-3.0425,-1.5985,0.9126,-1.0941
17152,0.0139,-0.1746,9.8563,-0.5293,-0.5982,-3.0240,-1.6089,0.9109,-1.0906
17160,0.0174,-0.2187,9.9069,-0.5929,-0.6268,-3.1584,-1.6196,0.9087,-1.0909
17168,0.0223,-0.1602,9.8757,-0.6563,-0.5287,-3.1348,-1.6322,0.9047,-1.0893
17176,0.0282,-0.1127,9.8993,-0.7757,-0.3737,-3.3737,-1.6447,0.9006,-1.0876
17184,0.0727,-0.2387,9.8529,-0.7512,-0.3347,-3.2474,-1.6646,0.8961,-1.0879
17192,0.0902,-0.1300,9.8391,-0.6690,-0.3535,-3.4387,-1.6750,0.8930,-1.0872
17200,0.0901,-0.1036,9.9619,-0.6918,-0.4247,-3.6615,-1.6843,0.8908,-1.0875
17208,0.0622,-0.3289,9.9559,-0.5296,-0.3915,-3.7760,-1.6964,0.8920,-1.0849
17216,0.1349,-0.1018,10.0344,-0.3479,-0.4025,-3.8108,-1.7084,0.8931,-1.0823
17224,0.1155,-0.5769,10.0648,-0.4967,-0.2369,-3.8334,-1.7208,0.8886,-1.0816
17232,0.0132,-0.1185,10.0176,-0.2417,-0.4199,-3.8497,-1.7331,0.8841,-1.0809
17240,0.0350,0.3299,10.0355,-0.0192,-0.5016,-3.9426,-1.7463,0.8839,-1.0830
17248,0.0442,-0.2860,10.0709,-0.2731,-0.6331,-4.0555,-1.7594,0.8836,-1.0851
17256,0.0858,-0.7021,10.1880,-0.4332,-0.5321,-4.1820,-1.7723,0.8834,-1.0872
17264,0.1371,-0.3507,10.2485,-0.3277,-0.5315,-4.1618,-1.7857,0.8803,-1.0874
17272,0.1540,-0.8453,10.1296,-0.4614,-0.1897,-3.8944,-1.7985,0.8800,-1.0881
17280,0.2471,-0.2977,10.3532,-0.2880,-0.0334,-3.8173,-1.8155,0.8798,-1.0845
17288,0.1437,-0.5295,10.2308,-0.3648,0.1133,-3.6317,-1.8257,0.8809,-1.0851
17296,0.1685,-0.6241,10.1369,-0.2942,0.0776,-3.1954,-1.8359,0.8821,-1.0857
17304,0.2630,-0.3366,10.2163,-0.3894,0.0195,-3.0316,-1.8460,0.8780,-1.0854
17312,0.2510,-0.3161,10.1939,-0.2804,-0.1027,-2.8483,-1.8626,0.8763,-1.0827
17320,0.2447,-0.1285,10.1973,-0.4322,0.0577,-2.8357,-1.8764,0.8732,-1.0772
17328,0.2276,-0.2248,10.1535,-0.2280,0.0218,-2.8103,-1.8900,0.8701,-1.0717
17336,0.1643,-0.1739,10.0551,-0.2648,-0.1165,-2.7647,-1.9002,0.8680,-1.0671
17344,0.0938,-0.0263,10.0553,-0.0653,-0.2035,-2.8330,-1.9151,0.8649,-1.0664
17352,0.0920,-0.0735,10.0560,-0.0905,-0.0813,-2.7144,-1.9275,0.8651,-1.0642
17360,0.0302,-0.1605,9.9532,-0.1359,-0.1191,-2.7610,-1.9398,0.8654,-1.0620
17368,0.0649,-0.0888,9.9298,0.0286,-0.0166,-2.9681,-1.9521,0.8656,-1.0598
17376,0.0422,-0.1684,9.8044,0.0206,0.0467,-3.0116,-1.9690,0.8634,-1.0543
17384,0.0421,-0.2012,9.7693,-0.0083,0.1286,-3.0398,-1.9858,0.8613,-1.0488
17392,0.0602,-0.4418,9.7520,-0.1080,0.1296,-3.0162,-2.0006,0.8596,-1.0485
17400,0.1076,-0.4700,9.8243,-0.1527,-0.0534,-3.2095,-2.0154,0.8580,-1.0482
17408,0.0867,-0.4040,9.8711,-0.1847,-0.1192,-3.3358,-2.0300,0.8563,-1.0479
17416,0.0828,-0.1825,9.7850,-0.1781,-0.1447,-3.3632,-2.0441,0.8504,-1.0471
17424,0.0929,-0.2486,9.7549,-0.0383,-0.1584,-3.4587,-2.0614,0.8497,-1.0449
17432,0.0679,-0.2255,9.7595,-0.0487,-0.2275,-3.5287,-2.0801,0.8499,-1.0442
17440,0.0431,-0.3153,9.7897,0.0320,-0.1789,-3.7423,-2.0925,0.8469,-1.0443
17448,0.0392,-0.3688,9.8165,0.0506,-0.1752,-3.6106,-2.1048,0.8438,-1.0445
17456,0.0276,-0.3766,9.7552,0.0763,-0.2676,-3.5886,-2.1194,0.8393,-1.0461
17464,0.0853,-0.1095,9.8582,0.2155,-0.2706,-3.6956,-2.1353,0.8348,-1.0429
17472,-0.0218,-0.0445,9.6781,0.1674,-0.1241,-3.4059,-2.1483,0.8323,-1.0435
17480,0.0306,-0.4653,9.8330,0.2040,-0.2774,-3.3609,-2.1593,0.8340,-1.0484
17488,-0.1469,-0.0395,9.6571,0.1510,-0.1333,-3.2005,-2.1702,0.8357,-1.0533
17496,0.0381,-0.1952,10.0869,0.2177,-0.3395,-3.2365,-2.1810,0.8374,-1.0581
17504,-0.0381,-0.3576,9.8400,-0.0332,-0.4567,-3.1696,-2.1951,0.8376,-1.0558
17512,0.0436,-0.3382,9.5842,0.0148,-0.1742,-2.9456,-2.2091,0.8379,-1.0535
17520,0.1149,-0.1385,9.8547,0.2528,-0.0933,-2.8114,-2.2268,0.8358,-1.0513
17528,0.1115,-0.5049,9.9500,0.1817,-0.2052,-2.4617,-2.2444,0.8337,-1.0490
17536,-0.0728,0.1470,9.8678,0.2550,-0.1923,-2.3460,-2.2619,0.8315,-1.0467
17544,0.0009,-0.2893,10.1832,0.2158,-0.2279,-2.3153,-2.2770,0.8257,-1.0435
17552,0.0557,-0.2332,9.8488,-0.0110,-0.0967,-2.2247,-2.2905,0.8250,-1.0435
17560,0.0242,-0.2111,9.5703,-0.0119,-0.2405,-2.1646,-2.3040,0.8243,-1.0436
17568,-0.1568,0.3095,9.5132,0.0885,-0.2341,-2.2032,-2.3174,0.8199,-1.0413
17576,0.0069,0.0609,9.8861,0.1179,-0.1345,-2.4028,-2.3307,0.8216,-1.0381
17584,0.0174,-0.3240,10.0723,0.2660,0.0620,-2.4470,-2.3425,0.8261,-1.0401
17592,-0.0095,-0.7073,10.0636,0.2663,0.1245,-2.3026,-2.3580,0.8202,-1.0416
17600,-0.0115,-0.0667,10.2429,0.4293,0.5870,-2.2925,-2.3734,0.8143,-1.0431
17608,-0.2903,0.3582,10.0208,0.3931,0.7973,-2.2215,-2.3835,0.8080,-1.0393
17616,-0.1836,0.1869,9.7664,0.1799,0.0464,-2.1243,-2.3959,0.8055,-1.0389
17624,-0.0725,-0.0988,10.2246,0.3173,-0.2183,-1.9007,-2.4083,0.8029,-1.0385
17632,0.0977,-0.2462,10.5676,0.3260,-0.3195,-1.8735,-2.4258,0.8023,-1.0400
17640,0.3223,0.0737,10.9372,0.6090,0.1331,-1.9488,-2.4432,0.8017,-1.0415
17648,0.1817,0.0948,10.5360,0.6930,0.3979,-1.9035,-2.4605,0.8011,-1.0429
17656,0.1442,0.1139,10.1871,0.4986,0.9604,-1.9909,-2.4729,0.7967,-1.0444
17664,0.1599,-0.3479,10.5324,0.4274,1.3570,-1.7144,-2.4853,0.7923,-1.0458
17672,-0.1315,-0.1377,10.2143,0.4367,1.0829,-1.3354,-2.4952,0.7917,-1.0472
17680,-0.1661,-0.6153,10.2586,0.5868,1.1115,-1.5916,-2.5051,0.7910,-1.0486
17688,-0.5113,-0.1474,9.9603,0.5758,0.8882,-1.3033,-2.5201,0.7862,-1.0482
17696,-0.4105,-0.5261,10.3098,0.6692,0.8827,-2.0169,-2.5346,0.7832,-1.0515
17704,-0.4896,-0.5240,9.9150,0.5505,0.8320,-1.5446,-2.5480,0.7774,-1.0514
17712,-0.5229,0.3921,10.0028,0.8797,0.7409,-1.6930,-2.5599,0.7745,-1.0514
17720,-0.3682,0.2796,9.7429,0.6665,0.2111,-1.3336,-2.5718,0.7716,-1.0514
17728,-0.2563,0.3034,9.3975,0.3373,-0.0448,-1.2272,-2.5812,0.7720,-1.0466
17736,-0.1570,0.3096,9.1027,0.0119,-0.3002,-0.7948,-2.5957,0.7681,-1.0470
17744,-0.1045,0.3625,8.6496,0.1673,-0.5658,-0.8800,-2.6078,0.7642,-1.0513
17752,-0.1867,1.0708,9.1393,0.3346,-0.4865,-0.7881,-2.6199,0.7604,-1.0555
17760,-0.4042,1.1592,9.0267,0.2785,-0.2612,-0.6256,-2.6337,0.7546,-1.0530
17768,-0.3564,1.1755,8.6797,0.0223,-0.2912,-0.3902,-2.6479,0.7446,-1.0511
17776,-0.4675,1.7104,8.7379,0.1053,-0.1865,-0.5650,-2.6621,0.7347,-1.0491
17784,-0.4278,1.3905,8.6844,0.0993,-0.7371,-0.5509,-2.6724,0.7281,-1.0481
17792,-0.4269,0.9324,8.7335,0.0109,-0.7996,-0.5481,-2.6826,0.7215,-1.0471
17800,-0.4462,1.2135,8.9154,0.1397,-0.5766,-0.4921,-2.6928,0.7149,-1.0461
17808,-0.4126,1.0492,8.9293,0.1215,-0.3341,-0.6785,-2.7043,0.7112,-1.0479
17816,-0.3713,0.8368,9.0353,-0.0026,-0.3156,-0.8381,-2.7158,0.7075,-1.0497
17824,-0.3316,0.6287,9.1594,-0.1292,-0.3405,-0.9614,-2.7262,0.7005,-1.0491
17832,-0.2984,0.6412,9.2516,-0.0396,-0.3750,-1.2499,-2.7366,0.6935,-1.0486
17840,-0.2547,0.5528,9.3269,0.0114,-0.4426,-1.2325,-2.7493,0.6889,-1.0480
17848,-0.2252,0.5885,9.3340,0.1189,-0.4700,-1.2292,-2.7619,0.6843,-1.0475
17856,-0.1894,0.5470,9.3932,0.1763,-0.3708,-1.1808,-2.7716,0.6826,-1.0464
17864,-0.2144,0.5459,9.4268,0.1778,-0.2067,-1.3184,-2.7812,0.6809,-1.0430
17872,-0.1323,0.3381,9.5191,0.2327,-0.1457,-1.2713,-2.7908,0.6791,-1.0396
17880,-0.1012,0.4274,9.4925,0.2504,-0.0527,-1.4023,-2.8041,0.6769,-1.0390
17888,-0.0781,0.5721,9.4619,0.2461,-0.0651,-1.6716,-2.8197,0.6710,-1.0385
17896,-0.0413,0.7120,9.4812,0.2819,-0.0450,-1.9611,-2.8319,0.6664,-1.0379
17904,-0.0403,0.6451,9.4868,0.2309,0.0836,-2.2699,-2.8441,0.6619,-1.0374
17912,-0.0435,0.5568,9.5092,0.1900,0.1932,-2.5413,-2.8561,0.6574,-1.0368
17920,-0.0714,0.4600,9.5368,0.1670,0.2794,-2.9181,-2.8700,0.6533,-1.0391
17928,-0.0357,0.1911,9.5813,0.2170,0.3485,-3.0650,-2.8838,0.6493,-1.0414
17936,-0.0703,0.2963,9.6043,0.1767,0.3132,-3.1896,-2.8962,0.6501,-1.0427
17944,-0.0697,0.2234,9.5936,0.1303,0.2928,-3.5060,-2.9084,0.6508,-1.0440
17952,-0.0833,0.1474,9.5844,0.0432,0.3639,-3.8246,-2.9206,0.6515,-1.0453
17960,-0.0824,0.0904,9.6135,-0.0614,0.3413,-4.0013,-2.9356,0.6456,-1.0456
17968,-0.0825,-0.0831,9.6548,-0.1001,0.4023,-4.0929,-2.9467,0.6416,-1.0488
17976,-0.1090,-0.1468,9.6512,-0.0865,0.2686,-3.9139,-2.9605,0.6395,-1.0529
17984,-0.0715,-0.2022,9.6912,-0.1508,0.2049,-3.7080,-2.9743,0.6374,-1.0570
17992,-0.0886,-0.2641,9.6559,-0.1189,0.2318,-3.4284,-2.9904,0.6339,-1.0549
18000,-0.0731,-0.2592,9.7027,-0.0618,0.1110,-3.1931,-3.0046,0.6299,-1.0562
18008,-0.0659,-0.2984,9.6590,-0.1164,0.0701,-2.9787,-3.0181,0.6255,-1.0541
18016,-0.0871,-0.3074,9.6796,-0.0807,0.1563,-2.7817,-3.0297,0.6201,-1.0563
18024,-0.0877,-0.3279,9.6923,-0.0226,0.0921,-2.6467,-3.0412,0.6147,-1.0584
18032,-0.0818,-0.3802,9.6943,0.0010,0.1453,-2.5229,-3.0517,0.6156,-1.0582
18040,-0.0724,-0.3897,9.7370,0.0555,0.0629,-2.2312,-3.0622,0.6164,-1.0580
18048,-0.0694,-0.3686,9.7420,0.0224,0.0268,-2.0775,-3.0739,0.6082,-1.0559
18056,-0.0607,-0.3432,9.7451,-0.0013,-0.0344,-1.9039,-3.0857,0.6000,-1.0538
18064,-0.0546,-0.3107,9.7498,-0.0080,-0.1170,-1.8313,-3.0973,0.5919,-1.0517
18072,-0.0533,-0.2767,9.7581,-0.0464,-0.1772,-1.7005,-3.1075,0.5857,-1.0492
18080,-0.0434,-0.2550,9.7465,0.0156,-0.1629,-1.8180,-3.1176,0.5795,-1.0466
18088,-0.0367,-0.2254,9.7619,-0.0345,-0.1651,-1.7811,-3.1262,0.5756,-1.0497
18096,-0.0357,-0.1995,9.7522,-0.1677,-0.1726,-1.7459,-3.1348,0.5718,-1.0529
18104,-0.0311,-0.1856,9.7498,-0.2311,-0.0971,-1.6108,-3.1437,0.5709,-1.0545
18112,-0.0448,-0.1594,9.7590,-0.2197,-0.0196,-1.5456,-3.1550,0.5690,-1.0539
18120,0.1274,-0.0960,10.2894,-0.8088,0.2065,-1.5819,-3.1696,0.5675,-1.0569
18128,0.1360,-0.2378,10.4144,0.1585,-0.1132,-1.6007,-3.1802,0.5623,-1.0581
18136,0.1270,-0.2148,10.4174,-0.1832,0.0130,-1.4693,-3.1908,0.5571,-1.0593
18144,0.1111,-0.2118,10.3932,-0.0619,0.0377,-1.4370,-3.2042,0.5553,-1.0619
18152,0.1026,-0.1963,10.3330,-0.1832,0.1387,-1.3501,-3.2171,0.5501,-1.0607
18160,0.0831,-0.1804,10.2899,-0.1740,0.1606,-1.2456,-3.2241,0.5487,-1.0619
18168,0.0686,-0.1716,10.2341,-0.2157,0.1175,-1.2258,-3.2312,0.5474,-1.0630
18176,0.0555,-0.1576,10.1913,-0.1944,-0.0063,-1.2254,-3.2382,0.5460,-1.0642
18184,0.0414,-0.1377,10.1576,-0.1766,-0.0048,-1.3051,-3.2484,0.5399,-1.0616
18192,0.0381,-0.1256,10.1285,-0.1916,0.0474,-1.1573,-3.2586,0.5338,-1.0589
18200,0.0261,-0.1238,10.0894,-0.1260,0.1426,-1.1333,-3.2669,0.5306,-1.0582
