Timestamp_ms,AccX_Filt,AccY_Filt,AccZ_Filt,GyrX_Filt,GyrY_Filt,GyrZ_Filt,MagX_Filt,MagY_Filt,MagZ_Filt
5233,-0.0978,-0.0337,9.7647,-0.0687,-3.2653,0.0085,3.1050,-60.3450,-63.3150
5240,-0.0432,-0.0075,9.7717,0.2051,-2.2384,0.3129,3.8762,-63.6843,-65.3587
5248,-0.0474,-0.0051,9.7870,0.0322,-0.9580,0.0281,4.1368,-64.6546,-65.8637
5256,-0.0285,-0.0113,9.7861,0.2673,-0.6530,0.2071,3.6036,-64.7348,-65.9574
5264,-0.0403,-0.0030,9.7896,0.4459,-0.4694,0.6971,3.4495,-64.4502,-66.1479
5272,-0.0249,-0.0077,9.8075,0.8549,-0.4189,0.7561,3.3406,-64.1535,-66.1673
5280,-0.0329,0.0065,9.8075,0.7107,-0.4899,0.7449,3.2578,-64.1675,-65.9198
5288,-0.0230,-0.0120,9.7956,0.4050,-0.4803,0.7837,3.1915,-64.1000,-65.6532
5296,-0.0170,0.0031,9.7953,0.4349,-0.5719,0.7857,3.1362,-63.9787,-65.3746
5304,-0.0225,0.0172,9.8065,0.2916,-0.7807,0.8968,3.1185,-63.7310,-65.0436
5312,-0.0288,0.0042,9.7842,0.3098,-0.6742,0.9882,3.1012,-63.4727,-64.7157
5320,-0.0253,0.0207,9.7929,0.2482,-0.6674,0.8173,3.0842,-63.2070,-64.3905
5328,-0.0223,0.0114,9.7993,0.4787,-0.5689,0.8983,3.1019,-62.8902,-64.1022
5336,-0.0202,0.0127,9.7909,0.4885,-0.4695,0.7742,2.9766,-62.6506,-63.8541
5344,-0.0234,0.0209,9.7835,0.5706,-0.2586,0.8084,2.7770,-62.3341,-63.6386
5352,-0.0005,0.0356,9.7919,0.5947,-0.2085,0.6634,2.7315,-62.1326,-63.4034
5360,0.0076,0.0373,9.7950,0.4652,-0.2563,0.7609,2.6900,-61.9208,-63.1611
5368,0.0055,0.0364,9.7953,0.4501,-0.2709,0.6709,2.7182,-61.6841,-62.7971
5376,0.0023,0.0255,9.7912,0.4015,-0.3151,0.7258,2.6796,-61.3796,-62.5118
5384,-0.0015,0.0320,9.8009,0.3612,-0.2799,0.5575,2.7409,-61.0625,-62.2487
5392,-0.0021,0.0325,9.8006,0.3354,-0.2077,0.5173,2.7598,-60.7704,-61.9482
5400,0.0081,0.0424,9.8078,0.4042,-0.1204,0.3385,2.7761,-60.4798,-61.6495
5408,0.0140,0.0461,9.8068,0.4085,-0.0679,0.2365,2.7381,-60.1973,-61.3656
5416,0.0123,0.0351,9.8004,0.4057,-0.1414,0.2679,2.7087,-59.9407,-61.0574
5424,0.0099,0.0359,9.8020,0.4263,-0.0634,0.2106,2.6808,-59.6832,-60.7521
5432,-0.0024,0.0245,9.8062,0.4585,-0.0008,0.1770,2.6025,-59.3907,-60.4553
5440,-0.0066,0.0281,9.7985,0.4212,0.0447,0.0113,2.5292,-59.1003,-60.1607
5448,0.0057,0.0368,9.7943,0.4400,-0.0138,0.0427,2.4605,-58.8121,-59.8682
5456,0.0177,0.0310,9.7882,0.4668,0.0216,-0.1486,2.4424,-58.4796,-59.6089
5464,0.0203,0.0312,9.7832,0.3939,0.0947,-0.1376,2.4248,-58.1523,-59.3495
5472,0.0204,0.0259,9.7910,0.3921,0.0572,-0.1516,2.4175,-57.8541,-59.0806
5480,0.0241,0.0156,9.7870,0.3664,0.1509,-0.1107,2.4100,-57.5589,-58.8126
5488,0.0352,0.0113,9.7812,0.3601,0.1559,-0.1524,2.4116,-57.2575,-58.5728
5496,0.0233,0.0216,9.7860,0.4011,0.1342,-0.1594,2.3948,-56.9772,-58.2927
5504,0.0067,0.0190,9.7848,0.3466,0.2596,-0.2417,2.4043,-56.6947,-57.9887
5512,-0.0034,0.0144,9.7870,0.3326,0.2275,-0.1517,2.3793,-56.4146,-57.6880
5520,-0.0051,0.0162,9.7889,0.2792,0.2489,-0.2390,2.3553,-56.1206,-57.3985
5528,-0.0090,0.0265,9.7934,0.2258,0.2521,-0.2902,2.3399,-55.8692,-57.1196
5536,-0.0076,0.0339,9.7998,0.2206,0.1812,-0.3615,2.3404,-55.5956,-56.8581
5544,-0.0176,0.0375,9.7955,0.0943,0.2101,-0.3246,2.3065,-55.3204,-56.6016
5552,-0.0066,0.0357,9.7925,0.2075,0.1840,-0.2727,2.2739,-55.0475,-56.3463
5560,-0.0136,0.0327,9.7976,0.1389,0.1398,-0.2038,2.2675,-54.7840,-56.1100
5568,-0.0171,0.0296,9.7912,0.2046,0.0865,-0.1635,2.2540,-54.5153,-55.8636
5576,-0.0176,0.0317,9.7978,0.2005,0.1303,-0.2473,2.2408,-54.2487,-55.6180
5584,-0.0130,0.0296,9.8023,0.1551,0.1470,-0.2467,2.2412,-53.9709,-55.3366
5592,-0.0112,0.0262,9.8019,0.1146,0.1850,-0.2379,2.2412,-53.6956,-55.0576
5600,0.0005,0.0123,9.7928,0.1256,0.1991,-0.2406,2.2409,-53.4228,-54.7812
5608,0.0007,0.0243,9.7970,0.1689,0.1495,-0.2266,2.2560,-53.1840,-54.5166
5616,0.0021,0.0210,9.7998,0.1747,0.1980,-0.1531,2.2701,-52.9462,-54.2540
5624,0.0003,0.0222,9.8069,0.1365,0.1187,-0.1377,2.2743,-52.6945,-54.0084
5632,-0.0037,0.0319,9.8156,0.1082,0.0894,-0.0903,2.2781,-52.4445,-53.7641
5640,-0.0013,0.0265,9.8162,0.0541,0.1049,-0.0587,2.2960,-52.2049,-53.5123
5648,0.0049,0.0299,9.8181,0.0703,0.1387,-0.0394,2.2872,-51.9696,-53.2651
5656,0.0146,0.0293,9.8321,0.0289,0.1439,-0.0969,2.2701,-51.7383,-53.0166
5664,0.0079,0.0219,9.8402,0.0462,0.1082,-0.0273,2.2506,-51.4971,-52.7724
5672,-0.0086,0.0270,9.8353,0.0222,0.1066,-0.0149,2.2316,-51.2575,-52.5298
5680,-0.0263,0.0303,9.8235,-0.0683,0.0727,-0.0004,2.1890,-51.0034,-52.2939
5688,-0.5142,0.0324,9.8060,-0.1088,-0.0109,-0.7282,2.1738,-50.7515,-52.0776
5696,-0.2925,0.0288,9.7838,-0.1043,0.0709,-1.6091,2.1460,-50.5015,-51.8490
5704,-0.1729,0.0429,9.7751,-0.0247,0.0602,-2.0869,2.1316,-50.2863,-51.5964
5712,-0.2419,0.0328,9.7941,-0.1100,-0.0146,-2.4330,2.1173,-50.0720,-51.3457
5720,-0.3367,0.0374,9.7959,-0.1082,-0.0296,-2.8737,2.1009,-49.8537,-51.1238
5728,-0.3519,0.0288,9.7970,-0.0877,-0.0117,-3.3538,2.0848,-49.6365,-50.9030
5736,-0.3633,0.0228,9.7747,-0.0815,0.0134,-3.8259,2.0618,-49.4155,-50.6832
5744,-0.4174,0.0179,9.7796,-0.0836,-0.0484,-4.4191,2.0394,-49.1958,-50.4644
5752,-0.4459,0.0152,9.7704,-0.0696,-0.1074,-4.8009,2.0174,-48.9772,-50.2467
5760,-0.4211,0.0187,9.7762,0.0108,-0.1103,-5.2382,1.9936,-48.7508,-50.0391
5768,-0.4578,0.0192,9.7701,0.0261,-0.1344,-5.4175,1.9703,-48.5258,-49.8323
5776,-0.4810,0.0132,9.7673,-0.0263,-0.0262,-5.6666,1.9497,-48.3111,-49.6174
5784,-0.4902,0.0219,9.7797,-0.0041,-0.0541,-5.7307,1.9295,-48.0976,-49.4037
5792,-0.4612,0.0298,9.8074,0.0386,0.0639,-5.8642,1.9183,-47.8981,-49.1781
5800,-0.4723,-0.0004,9.8111,-0.0277,0.0321,-5.9142,1.9093,-47.6761,-48.9519
5808,-0.4572,0.0060,9.8430,-0.0589,-0.0276,-5.8817,1.8691,-47.4598,-48.7271
5816,-0.4769,0.0154,9.8296,-0.0941,0.0356,-6.0004,1.8566,-47.2510,-48.5182
5824,-0.4714,0.0130,9.8239,-0.1705,0.1120,-5.8813,1.8442,-47.0433,-48.3103
5832,-0.5212,0.0121,9.8100,-0.1901,0.1236,-5.9198,1.8381,-46.8348,-48.0874
5840,-0.5397,0.0123,9.8029,-0.1421,-0.0283,-5.8150,1.8319,-46.6215,-47.8799
5848,-0.5379,0.0284,9.8134,-0.1870,-0.2563,-5.7816,1.8238,-46.3861,-47.6617
5856,-0.5749,0.0234,9.8269,-0.1952,-0.3167,-5.5413,1.8119,-46.1778,-47.4487
5864,-0.5701,0.0070,9.8538,-0.1683,-0.3771,-5.2261,1.8001,-45.9708,-47.2371
5872,-0.5681,0.0104,9.8580,-0.0491,-0.3655,-4.9167,1.7885,-45.7708,-47.0135
5880,-0.5367,0.0125,9.8518,0.0996,-0.1194,-4.5996,1.7770,-45.5719,-46.7914
5888,-0.5196,0.0259,9.8553,0.2097,0.1400,-4.3631,1.7601,-45.3594,-46.5764
5896,-0.4942,0.0311,9.8704,0.2642,0.1157,-4.0836,1.7435,-45.1483,-46.3629
5904,-0.4734,0.0572,9.8762,0.4098,-0.0918,-3.8164,1.7272,-44.9388,-46.1507
5912,-0.4847,0.0818,9.9075,0.3221,-0.1994,-3.5876,1.7093,-44.7467,-45.9417
5920,-0.4635,0.0681,9.9007,0.3023,-0.1421,-3.6063,1.6917,-44.5556,-45.7340
5928,-0.4497,0.0743,9.8973,0.2620,-0.2262,-3.5869,1.6848,-44.3813,-45.5258
5936,-0.4450,0.0686,9.9015,0.2609,-0.3625,-3.4695,1.6780,-44.2077,-45.3190
5944,-0.3884,0.0593,9.9057,0.2971,-0.1941,-3.1893,1.6558,-44.0194,-45.1271
5952,-0.3686,0.0167,9.8731,0.5159,0.1297,-3.0787,1.6509,-43.8322,-44.9244
5960,-0.1753,-0.0086,9.8878,0.5597,0.2579,-2.6928,1.6377,-43.6593,-44.7230
5968,-0.0505,-0.0648,9.8656,0.5989,0.3939,-2.3718,1.6329,-43.4706,-44.5310
5976,-0.0127,-0.0642,9.8847,0.4016,0.5372,-1.9716,1.6280,-43.2830,-44.3402
5984,-0.0050,-0.0750,9.8800,0.3250,0.6316,-1.6101,1.6102,-43.1095,-44.1357
5992,0.0235,-0.0578,9.8822,0.3931,0.4604,-1.2245,1.5895,-42.9143,-43.9471
6000,0.0314,-0.0542,9.8847,0.2555,0.5154,-0.7838,1.5770,-42.7378,-43.7595
6008,0.1397,-0.0400,9.8924,0.2360,0.5680,-0.3410,1.5647,-42.5449,-43.5603
6016,0.1052,-0.0750,9.8091,0.2253,0.6024,-0.0777,1.5525,-42.3532,-43.3624
6024,-0.0864,-0.1061,9.6787,0.2151,0.5258,0.2622,1.5358,-42.1813,-43.1688
6032,0.0268,-0.0309,9.6477,0.7921,0.4339,0.5552,1.5194,-42.0102,-42.9764
6040,0.1674,-0.0886,9.6779,0.7465,1.2023,1.0967,1.5001,-41.8415,-42.7897
6048,0.1480,-0.0748,9.7380,0.9348,1.8090,1.0011,1.4811,-41.6737,-42.6041
6056,0.0330,-0.1069,9.7838,0.6802,1.6850,0.7096,1.4624,-41.5066,-42.4196
6064,0.0054,-0.1797,9.7519,0.5274,1.2544,1.0790,1.4514,-41.3448,-42.2213
6072,0.0092,-0.1294,9.7558,0.5627,1.2880,1.1202,1.4404,-41.1837,-42.0244
6080,0.0399,-0.2009,9.7930,0.6391,0.5734,1.3996,1.4252,-41.0204,-41.8420
6088,0.0167,-0.2433,9.7247,0.8401,0.6902,1.6935,1.4103,-40.8579,-41.6606
6096,0.1214,-0.2152,9.8114,0.8377,1.1112,1.7958,1.4026,-40.6719,-41.4731
6104,0.1374,-0.2294,9.8356,0.8140,1.3538,1.9470,1.3993,-40.4998,-41.2854
6112,0.1418,-0.1621,9.8293,0.8448,1.5084,1.8942,1.3973,-40.3330,-41.0975
6120,0.1043,-0.1226,9.8390,1.0608,1.4296,2.2064,1.3856,-40.1781,-40.9135
6128,0.0249,-0.0795,9.8214,0.9181,1.7675,2.1157,1.3740,-40.0240,-40.7308
6136,0.0482,-0.0438,9.7896,1.0536,1.5067,1.9408,1.3721,-39.8664,-40.5423
6144,0.0474,-0.0328,9.8232,0.8551,1.3160,1.9710,1.3769,-39.7028,-40.3550
6152,0.0107,-0.0425,9.8121,1.0254,1.2349,2.4105,1.3641,-39.5279,-40.1744
6160,0.0076,-0.0435,9.8062,1.1909,0.7307,2.5801,1.3608,-39.3540,-40.0016
6168,0.0184,-0.0504,9.8013,1.1918,0.9019,3.2144,1.3575,-39.1813,-39.8299
6176,0.0187,-0.0301,9.7832,1.0060,0.6656,3.1382,1.3620,-39.0188,-39.6538
6184,0.0057,-0.0191,9.7531,1.1029,0.6423,3.0226,1.3664,-38.8572,-39.4788
6192,0.0035,-0.0301,9.7483,1.0090,0.4120,3.2295,1.3617,-38.6925,-39.3023
6200,0.0052,-0.0450,9.7494,0.9085,0.4612,3.5766,1.3569,-38.5289,-39.1269
6208,-0.0243,-0.0358,9.7239,0.8711,0.2521,3.5672,1.3521,-38.3661,-38.9525
6216,-0.0168,-0.0037,9.7168,0.6247,0.6736,3.6409,1.3524,-38.2157,-38.7767
6224,-0.0424,0.0157,9.7318,0.6823,0.4180,3.5381,1.3527,-38.0660,-38.6020
6232,-0.0445,0.0246,9.7968,0.6948,0.2908,3.4637,1.3554,-37.9045,-38.4347
6240,-0.0688,0.0341,9.7937,0.7227,0.1879,3.3313,1.3418,-37.7515,-38.2683
6248,-0.0940,0.0536,9.8032,0.6721,0.0549,3.1966,1.3284,-37.5992,-38.0894
6256,-0.0758,0.0498,9.8018,0.6424,-0.0697,3.0332,1.3311,-37.4501,-37.9190
6264,-0.1053,0.0437,9.7905,0.7099,0.0325,2.7836,1.3325,-37.2970,-37.7484
6272,-0.1029,0.0399,9.8030,0.8945,0.0662,2.7076,1.3289,-37.1434,-37.5838
6280,-0.1025,0.0625,9.8162,0.6737,-0.0562,2.6455,1.3254,-36.9907,-37.4202
6288,-0.1121,0.0633,9.8167,0.4892,-0.2532,2.6075,1.3147,-36.8364,-37.2623
6296,-0.1546,0.0664,9.8281,0.3422,-0.0897,2.3152,1.3112,-36.6818,-37.1030
6304,-0.1916,0.0614,9.8344,0.2255,-0.0853,2.0410,1.3112,-36.5399,-36.9446
6312,-0.2006,0.0591,9.8291,0.3593,0.0149,2.1068,1.3112,-36.3834,-36.7848
6320,-0.2610,0.0220,9.8215,0.3779,-0.4492,2.1404,1.3111,-36.2278,-36.6260
6328,-0.2470,0.0381,9.7997,0.2250,-0.5971,1.9805,1.3122,-36.0835,-36.4692
6336,-0.2306,0.0768,9.7945,0.1988,-0.4185,1.9849,1.3132,-35.9400,-36.3134
6344,-0.2513,0.0754,9.7939,0.2298,-0.6664,1.9785,1.3084,-35.8006,-36.1619
6352,-0.2910,0.0581,9.7806,0.2114,-0.5088,2.3963,1.3036,-35.6619,-36.0112
6360,-0.2645,0.0817,9.7777,0.1591,-0.5394,2.4172,1.2989,-35.5239,-35.8614
6368,-0.2533,0.0825,9.7860,0.3145,-0.5579,2.5332,1.2986,-35.3820,-35.7046
6376,-0.2687,0.0742,9.8017,0.0604,-0.3171,2.6068,1.2984,-35.2410,-35.5488
6384,-0.0771,0.0744,9.8696,-0.2386,-0.5054,2.7785,1.3069,-35.1017,-35.3928
6392,-0.0254,0.1110,9.8674,-0.1325,-0.3495,2.6093,1.3032,-34.9621,-35.2443
6400,-0.0643,0.1245,9.8621,-0.1724,-0.4137,2.5223,1.2994,-34.8231,-35.0966
6408,-0.0981,0.1486,9.8628,-0.0506,-0.5338,2.4977,1.3098,-34.6795,-34.9476
6416,-0.1100,0.1631,9.8803,0.0046,-0.3153,2.4475,1.3071,-34.5356,-34.8059
6424,-0.1162,0.1576,9.8661,0.0467,-0.2877,2.1915,1.3065,-34.3967,-34.6532
6432,-0.0485,0.1694,9.8300,0.2550,-0.5839,2.1520,1.2974,-34.2640,-34.5035
6440,-0.1016,0.1792,9.8128,0.3395,-0.6059,2.1383,1.2883,-34.1318,-34.3547
6448,-0.0507,0.1881,9.8123,0.3083,-0.6083,2.2371,1.2825,-34.0077,-34.2047
6456,0.0249,0.2102,9.7549,0.3638,-0.7092,1.9423,1.2872,-33.8768,-34.0555
6464,0.0104,0.2034,9.7476,0.2302,-0.7470,1.9564,1.2845,-33.7497,-33.9114
6472,0.0178,0.1826,9.7291,0.2704,-0.8339,2.0099,1.2818,-33.6232,-33.7681
6480,-0.1063,0.1807,9.6883,0.3569,-0.6529,1.9704,1.2863,-33.4910,-33.6194
6488,-0.1161,0.1648,9.6577,0.4236,-0.8639,1.7939,1.2907,-33.3596,-33.4715
6496,-0.0561,0.1919,9.6332,0.4288,-0.7856,1.6172,1.2920,-33.2319,-33.3287
6504,-0.1649,0.1559,9.5938,0.4257,-0.7134,1.5895,1.2933,-33.1047,-33.1866
6512,-0.1258,0.1610,9.6246,0.4280,-0.7111,1.3550,1.2944,-32.9782,-33.0454
6520,-0.1556,0.1580,9.5723,0.4783,-0.7222,1.2561,1.2946,-32.8554,-32.9019
6528,-0.2071,0.1493,9.5013,0.4943,-0.6954,0.9536,1.2947,-32.7331,-32.7593
6536,-0.2342,0.1223,9.4643,0.4750,-0.5205,0.8643,1.2897,-32.6014,-32.6125
6544,-0.3015,0.1306,9.4172,0.4166,-0.4146,0.8162,1.2947,-32.4734,-32.4665
6552,-0.3582,0.0767,9.5350,0.3633,-0.3613,0.8102,1.2997,-32.3461,-32.3215
6560,-0.2206,0.0716,9.5017,0.4698,-0.4704,0.7111,1.3064,-32.2115,-32.1793
6568,-0.2491,0.0338,9.5303,0.7102,-0.2973,0.6484,1.3112,-32.0826,-32.0457
6576,-0.1273,0.0141,9.6373,0.6148,-0.0625,0.7404,1.3197,-31.9533,-31.9109
6584,-0.1337,0.0264,9.6626,0.7182,0.1247,0.7591,1.3213,-31.8305,-31.7643
6592,-0.0798,-0.0039,9.7611,0.7931,0.0931,0.9636,1.3229,-31.7083,-31.6186
6600,-0.0420,0.0688,9.7495,0.8007,0.0868,0.8711,1.3283,-31.5838,-31.4844
6608,-0.1043,0.0909,9.7113,0.7227,0.1742,0.9454,1.3279,-31.4657,-31.3566
6616,-0.1029,0.0590,9.7569,0.6508,0.1750,0.8938,1.3246,-31.3434,-31.2182
6624,-0.0729,0.0811,9.7535,0.7579,0.2985,0.6204,1.3232,-31.2255,-31.0815
6632,-0.0794,0.0287,9.7463,0.5831,0.2540,0.4550,1.3218,-31.1081,-30.9456
6640,-0.0867,0.0701,9.7549,0.5946,0.1100,0.4088,1.3204,-30.9913,-30.8106
6648,-0.0642,0.0425,9.7895,0.4136,0.2257,0.4340,1.3255,-30.8769,-30.6791
6656,-0.1085,0.0297,9.8618,0.2885,0.4110,0.5087,1.3305,-30.7631,-30.5483
6664,-0.0055,0.0123,9.9709,0.3235,0.4415,0.4628,1.3409,-30.6415,-30.4100
6672,-0.0622,0.0457,9.9545,0.4317,0.2920,0.6829,1.3512,-30.5205,-30.2726
6680,-0.0142,0.0463,9.9523,0.5484,0.3890,0.6854,1.3613,-30.4001,-30.1359
6688,0.0210,0.0614,10.0050,0.4441,0.2952,0.6585,1.3731,-30.2867,-29.9992
6696,0.0429,0.0565,9.9944,0.4723,0.5548,0.6701,1.3848,-30.1738,-29.8741
6704,0.0540,0.1016,9.9598,0.2860,0.6536,0.7771,1.3962,-30.0614,-29.7497
6712,0.0436,0.0682,9.9353,0.2678,0.6415,0.8929,1.4111,-29.9586,-29.6198
6720,0.0833,0.0954,9.9436,0.2584,0.4353,0.9075,1.4302,-29.8535,-29.4905
6728,0.0687,0.1054,9.9470,0.1401,0.5741,0.9029,1.4472,-29.7443,-29.3727
6736,0.0696,0.0926,9.9028,-0.0211,0.5068,1.1811,1.4658,-29.6339,-29.2555
6744,0.0413,0.1070,9.8969,-0.1752,0.5571,1.4071,1.4841,-29.5240,-29.1390
6752,0.0972,0.0762,9.9039,-0.2345,0.4159,1.4153,1.4942,-29.4103,-29.0081
6760,0.0595,0.0762,9.8979,-0.1579,0.3689,1.3831,1.5198,-29.3023,-28.8963
6768,0.0503,0.0466,9.9170,-0.1381,0.2999,1.3817,1.5390,-29.1922,-28.7782
6776,0.0512,0.0485,9.9226,-0.0444,0.5006,1.4816,1.5640,-29.0809,-28.6676
6784,0.0059,0.0452,9.9007,-0.1414,0.5752,1.4172,1.5886,-28.9701,-28.5576
6792,0.0552,0.0236,9.8954,-0.1329,0.5372,1.3743,1.6128,-28.8598,-28.4481
6800,0.0620,0.0062,9.9276,-0.1755,0.5355,1.1652,1.6392,-28.7500,-28.3452
6808,0.0913,-0.0236,9.9112,-0.1068,0.3766,0.8506,1.6653,-28.6408,-28.2428
6816,0.0514,-0.0163,9.8776,-0.1825,0.1259,0.6191,1.6893,-28.5414,-28.1417
6824,0.0685,-0.0317,9.8518,-0.2362,-0.1004,0.7418,1.7130,-28.4425,-28.0411
6832,0.0494,-0.0456,9.8549,-0.4209,-0.1809,0.7310,1.7363,-28.3440,-27.9410
6840,0.0385,-0.0404,9.8745,-0.3122,-0.1485,0.6701,1.7576,-28.2374,-27.8439
6848,0.0573,-0.0548,9.8836,-0.2749,-0.2028,0.5798,1.7819,-28.1306,-27.7522
6856,0.0434,-0.0319,9.8964,-0.2392,-0.5508,0.2055,1.7993,-28.0284,-27.6625
6864,0.0212,-0.0635,9.8856,-0.3224,-0.6302,0.2849,1.8163,-27.9267,-27.5732
6872,0.0271,-0.0766,9.8823,-0.4633,-0.3729,0.2755,1.8249,-27.8254,-27.4884
6880,-0.0327,-0.1286,9.8592,-0.4301,-0.4041,0.2318,1.8464,-27.7254,-27.4047
6888,-0.0376,-0.1073,9.8520,-0.5716,-0.4019,0.0594,1.8545,-27.6226,-27.3180
6896,-0.0061,-0.1167,9.8455,-0.6057,-0.4078,0.0972,1.8624,-27.5202,-27.2316
6904,0.0115,-0.1075,9.8378,-0.5902,-0.4935,-0.0747,1.8734,-27.4110,-27.1431
6912,0.0757,-0.0786,9.8048,-0.6981,-0.5141,-0.2231,1.8760,-27.3113,-27.0606
6920,0.1097,-0.0480,9.8328,-0.5292,-0.4218,-0.2929,1.8818,-27.2063,-26.9775
6928,0.0994,-0.0284,9.8022,-0.5624,-0.4722,-0.4531,1.8931,-27.1083,-26.9068
6936,0.0646,-0.0299,9.8332,-0.6315,-0.5257,-0.6809,1.9042,-27.0107,-26.8362
6944,0.0336,-0.0485,9.7888,-0.4976,-0.4116,-0.6534,1.9151,-26.9135,-26.7658
6952,0.0679,-0.0594,9.8033,-0.5802,-0.3371,-0.6298,1.9154,-26.8096,-26.6827
6960,0.1058,0.0245,9.8083,-0.3685,-0.3912,-0.6072,1.9157,-26.7062,-26.5999
6968,0.0044,-0.0330,9.8360,-0.3874,-0.7016,-0.8709,1.9095,-26.5953,-26.5109
6976,-0.0446,-0.0413,9.8378,-0.3708,-0.8278,-0.9711,1.9032,-26.4850,-26.4223
6984,-0.0015,-0.0146,9.8536,-0.3149,-0.9191,-1.0110,1.8969,-26.3753,-26.3340
6992,-0.0125,-0.0123,9.8451,-0.4002,-0.8731,-1.1370,1.8953,-26.2692,-26.2475
7000,-0.0098,-0.0185,9.8442,-0.1484,-1.1517,-0.8790,1.8937,-26.1637,-26.1613
7008,-0.0215,-0.0646,9.9132,0.3884,-1.2876,-0.7548,1.8872,-26.0571,-26.0739
7016,0.0937,0.0130,9.9650,0.4297,-1.0654,-0.6094,1.8808,-25.9510,-25.9868
7024,0.0412,0.0627,10.0006,0.6213,-0.9037,-0.8704,1.8789,-25.8385,-25.8937
7032,0.0143,-0.0767,9.9736,0.7217,-1.0023,-0.3440,1.8763,-25.7297,-25.8134
7040,0.0600,-0.1342,9.9241,0.9112,-0.9474,-0.3605,1.8682,-25.6153,-25.7202
7048,0.0836,-0.1032,9.8997,1.0630,-1.1241,-0.2857,1.8700,-25.5030,-25.6374
7056,-0.0289,-0.0465,9.8942,1.1014,-1.2131,-0.1742,1.8717,-25.3914,-25.5548
7064,-0.0233,-0.0704,9.9123,1.1969,-1.1969,-0.0836,1.8650,-25.2750,-25.4680
7072,-0.0437,-0.1084,9.9146,1.2002,-1.2401,-0.0129,1.8628,-25.1563,-25.3807
7080,-0.0498,-0.0599,9.9104,1.1501,-1.3267,0.1161,1.8704,-25.0481,-25.2990
7088,0.0166,-0.0255,9.9447,1.0861,-1.0335,0.0687,1.8779,-24.9405,-25.2176
7096,-0.0308,-0.0464,9.8775,1.2036,-1.0732,-0.1579,1.8852,-24.8335,-25.1364
7104,0.0288,-0.0953,9.8981,1.3186,-0.8924,-0.1053,1.8901,-24.7137,-25.0481
7112,0.0084,-0.1068,9.9109,1.3139,-0.8849,-0.2817,1.8950,-24.5945,-24.9600
7120,-0.0382,-0.1522,9.9134,1.3681,-1.1151,-0.4636,1.8974,-24.4813,-24.8790
7128,-0.0804,-0.1405,9.9001,1.2866,-1.2418,-0.6110,1.8998,-24.3687,-24.7983
7136,-0.0808,-0.0981,9.9013,1.2939,-1.4030,-0.6879,1.9021,-24.2568,-24.7179
7144,-0.0743,-0.0947,9.8987,1.2637,-1.3465,-0.6468,1.9014,-24.1425,-24.6311
7152,-0.0980,-0.0575,9.8623,1.3280,-1.2498,-0.4501,1.9006,-24.0290,-24.5446
7160,-0.1359,-0.0270,9.8265,1.5576,-1.5040,-0.4301,1.8968,-23.9131,-24.4687
7168,-0.0668,-0.0131,9.8725,1.4358,-1.4457,-0.3335,1.8929,-23.7980,-24.3931
7176,0.0117,-0.0010,9.9060,1.2500,-1.4700,-0.3826,1.8810,-23.6864,-24.3184
7184,0.1228,0.1029,9.8328,1.0057,-1.4506,-0.0135,1.8793,-23.5726,-24.2397
7192,0.0767,0.1231,9.8208,1.1186,-1.4453,0.1715,1.8754,-23.4594,-24.1626
7200,0.0910,0.1301,9.8724,1.0720,-1.3096,0.2764,1.8642,-23.3469,-24.0808
7208,0.2360,0.1477,9.9778,0.9048,-1.1692,0.2593,1.8530,-23.2350,-23.9992
7216,0.2187,0.1359,10.0039,0.8196,-1.0642,0.4910,1.8418,-23.1332,-23.9230
7224,-0.1408,0.1425,9.8992,0.8234,-1.0306,0.4966,1.8372,-23.0348,-23.8499
7232,-0.0220,0.1225,9.9920,0.6270,-0.9557,0.8139,1.8239,-22.9333,-23.7699
7240,0.0581,0.1249,10.0405,0.4579,-0.8707,0.9147,1.8106,-22.8324,-23.6902
7248,-0.0297,0.1176,10.0119,0.2429,-0.9762,1.0964,1.7974,-22.7321,-23.6108
7256,0.0212,0.1296,10.0061,0.1386,-1.1170,1.0541,1.7814,-22.6387,-23.5239
7264,0.0353,0.1600,9.9836,0.0095,-1.2116,1.1817,1.7655,-22.5459,-23.4372
7272,0.0549,0.1507,9.9901,-0.0100,-1.3128,1.3704,1.7474,-22.4514,-23.3531
7280,0.1013,0.0998,9.9435,-0.1885,-1.3083,1.6735,1.7295,-22.3574,-23.2693
7288,0.1478,0.1418,9.9023,-0.2100,-1.0932,2.0514,1.7116,-22.2639,-23.1858
7296,0.1786,0.1510,9.8632,-0.2305,-1.2423,2.1594,1.6995,-22.1744,-23.0957
7304,0.1185,0.1184,9.8297,-0.2794,-1.0381,2.2253,1.6873,-22.0854,-23.0059
7312,0.0782,0.0989,9.7952,-0.5529,-1.0056,2.3123,1.6724,-21.9996,-22.9122
7320,0.1548,0.1158,9.7331,-0.6757,-1.0091,2.3289,1.6576,-21.9143,-22.8190
7328,0.1981,0.1977,9.7693,-0.4119,-0.7805,2.0835,1.6449,-21.8239,-22.7262
7336,0.1553,0.2085,9.7346,-0.5782,-0.4126,2.0967,1.6308,-21.7367,-22.6345
7344,0.1926,0.2091,9.7429,-0.7319,-0.5940,1.8241,1.6148,-21.6528,-22.5439
7352,0.2141,0.2206,9.7718,-1.0496,-0.4396,1.6033,1.6001,-21.5748,-22.4502
7360,0.2331,0.2269,9.7693,-1.2254,-0.4465,1.3976,1.5856,-21.4971,-22.3569
7368,0.1377,0.2011,9.7725,-1.4548,-0.2665,1.1715,1.5662,-21.4178,-22.2605
7376,0.1189,0.1838,9.8081,-1.5569,-0.1477,1.0407,1.5559,-21.3382,-22.1694
7384,0.1246,0.1608,9.9014,-1.7851,-0.0741,0.6302,1.5456,-21.2447,-22.0787
7392,0.1166,0.1268,9.9071,-1.6754,0.0150,0.3097,1.5353,-21.1517,-21.9884
7400,0.1480,0.1106,9.9363,-1.7385,0.1161,0.1658,1.5250,-21.0591,-21.8984
7408,0.1432,0.0982,9.9719,-1.8388,-0.0325,0.1750,1.5189,-20.9853,-21.8075
7416,0.1070,0.0464,9.8842,-2.1214,0.0468,0.1757,1.5127,-20.9119,-21.7170
7424,0.0332,0.1057,9.8560,-2.1676,0.3332,0.1977,1.5086,-20.8409,-21.6268
7432,0.0370,0.0264,9.7771,-1.7479,0.4471,0.0214,1.5044,-20.7703,-21.5371
7440,-0.1517,0.1327,9.6647,-2.0291,1.1854,-0.1605,1.5002,-20.6999,-21.4477
7448,-0.4947,0.2212,9.6141,-1.9807,1.0807,0.0923,1.4867,-20.6292,-21.3614
7456,-0.8255,0.2019,9.6676,-2.0304,0.9939,0.2326,1.4731,-20.5589,-21.2755
7464,-0.5509,0.1207,9.6481,-2.2993,1.0203,0.2921,1.4663,-20.4802,-21.1885
7472,-0.4715,0.0982,9.6509,-2.0631,1.0775,0.2371,1.4595,-20.4019,-21.1020
7480,-0.3672,0.1303,9.7009,-2.0719,0.9002,0.1817,1.4587,-20.3246,-21.0145
7488,-0.3526,0.1192,9.6905,-2.0137,0.6986,0.2355,1.4539,-20.2517,-20.9267
7496,-0.3239,0.0828,9.6948,-1.9420,0.7779,-0.0144,1.4491,-20.1832,-20.8438
7504,-0.2624,0.0375,9.6923,-1.7374,0.8430,-0.1548,1.4429,-20.1156,-20.7627
7512,-0.2441,0.0084,9.7164,-1.6538,0.7186,-0.0569,1.4367,-20.0483,-20.6819
7520,-0.1943,-0.0075,9.7579,-1.8378,0.6344,0.0659,1.4326,-19.9813,-20.5994
7528,-0.1952,-0.0155,9.8473,-1.7231,0.6658,-0.0326,1.4297,-19.9127,-20.5226
7536,-0.2216,-0.0642,9.7675,-1.7121,0.5038,-0.0841,1.4268,-19.8496,-20.4395
7544,-0.2391,-0.0522,9.7562,-1.5496,0.5756,-0.2827,1.4252,-19.7843,-20.3587
7552,-0.1870,0.0015,9.7770,-1.5968,0.5696,-0.4993,1.4235,-19.7192,-20.2782
7560,-0.2907,0.0355,9.8273,-1.4767,0.6225,-0.3891,1.4193,-19.6537,-20.1974
7568,-0.1767,0.0548,9.9088,-1.2284,0.8411,-0.4437,1.4150,-19.5886,-20.1170
7576,-0.1197,0.0040,9.9624,-1.2071,1.0234,-0.4853,1.4166,-19.5127,-20.0375
7584,-0.1910,0.0355,9.9030,-1.1706,0.9818,-0.6743,1.4181,-19.4372,-19.9583
7592,-0.1303,-0.0390,9.9272,-1.0371,0.9927,-0.8605,1.4195,-19.3621,-19.8795
7600,-0.1501,0.0097,9.9308,-0.9255,1.0058,-1.0118,1.4145,-19.2976,-19.7965
7608,-0.0418,-0.0208,9.8175,-0.8480,0.7250,-0.7859,1.4095,-19.2334,-19.7138
7616,-0.1766,-0.0722,9.7336,-1.0966,0.7177,-0.6098,1.4019,-19.1650,-19.6308
7624,-0.2890,-0.0267,9.6632,-0.9903,0.7402,-0.5401,1.4020,-19.0989,-19.5482
7632,-0.0386,0.0200,9.7339,-0.7927,0.6043,-0.8094,1.4021,-19.0331,-19.4627
7640,-0.0516,-0.0571,9.7049,-0.6304,0.7623,-0.9550,1.3983,-18.9682,-19.3859
7648,-0.0893,-0.0613,9.7861,-0.5765,0.8255,-1.0035,1.3939,-18.9061,-19.3107
7656,-0.0870,-0.0865,9.7412,-0.8263,0.6245,-1.2126,1.3939,-18.8380,-19.2358
7664,-0.0335,-0.1097,9.7198,-0.5932,0.6644,-1.0738,1.3939,-18.7702,-19.1611
7672,0.0478,-0.1649,9.7973,-0.4903,0.7185,-1.0585,1.3919,-18.7116,-19.0856
7680,0.0279,-0.1693,9.8019,-0.4239,0.7115,-0.9532,1.3874,-18.6475,-19.0115
7688,-0.0047,-0.2070,9.7788,-0.3603,0.6969,-1.0231,1.3874,-18.5806,-18.9346
7696,0.1098,-0.2106,9.8389,-0.4303,0.7176,-1.3540,1.3866,-18.5196,-18.8587
7704,0.0508,-0.2580,9.8290,-0.3665,0.6040,-1.3131,1.3859,-18.4590,-18.7831
7712,0.1623,-0.1720,9.8019,-0.3241,0.6287,-1.5246,1.3845,-18.3960,-18.7115
7720,0.1762,-0.1844,9.8043,-0.3770,0.7137,-1.5829,1.3830,-18.3334,-18.6402
7728,0.1459,-0.1706,9.7709,-0.2782,0.7310,-1.6599,1.3791,-18.2717,-18.5623
7736,0.1300,-0.1803,9.7825,-0.1837,0.8222,-1.7576,1.3751,-18.2102,-18.4848
7744,0.1132,-0.1569,9.8127,-0.2933,0.7840,-1.5284,1.3712,-18.1490,-18.4075
7752,0.0762,-0.1315,9.8172,-0.3955,0.8676,-1.5439,1.3710,-18.0856,-18.3344
7760,0.0195,-0.2142,9.8067,-0.2453,0.9368,-1.6306,1.3707,-18.0225,-18.2615
7768,0.0078,-0.2272,9.8145,-0.2029,1.1150,-1.7163,1.3642,-17.9615,-18.1907
7776,-0.0607,-0.2511,9.8607,-0.1570,1.0560,-1.5555,1.3596,-17.9009,-18.1172
7784,-0.0739,-0.1941,9.8725,-0.0945,1.0263,-1.5644,1.3550,-17.8404,-18.0439
7792,-0.0498,-0.2048,9.9041,-0.1761,0.9286,-1.7917,1.3560,-17.7827,-17.9703
7800,-0.0590,-0.1781,9.8885,0.1086,0.7311,-1.8169,1.3544,-17.7228,-17.9019
7808,-0.1088,-0.1607,9.8307,0.0208,0.6170,-1.8598,1.3528,-17.6632,-17.8326
7816,0.0220,-0.0904,9.8663,0.2089,0.9611,-1.6127,1.3525,-17.6081,-17.7605
7824,-0.0114,-0.1274,9.8625,0.3061,1.0769,-1.7631,1.3521,-17.5533,-17.6887
7832,-0.0375,-0.1199,9.8272,0.3163,1.2090,-1.5977,1.3517,-17.4876,-17.6183
7840,-0.0820,-0.1126,9.7105,0.4808,1.0099,-1.4501,1.3525,-17.4327,-17.5489
7848,-0.1820,-0.1461,9.7143,0.4648,1.1476,-1.1650,1.3484,-17.3719,-17.4785
7856,-0.1522,-0.1181,9.7468,0.3134,1.1672,-0.7617,1.3443,-17.3113,-17.4084
7864,-0.1740,-0.1320,9.6875,0.3260,1.1780,-0.5840,1.3420,-17.2480,-17.3398
7872,-0.1254,-0.1127,9.7695,0.2954,1.2016,-0.6114,1.3397,-17.1850,-17.2715
7880,-0.1219,-0.0847,9.7758,0.1728,1.0562,-0.5763,1.3374,-17.1253,-17.1992
7888,-0.1903,-0.0284,9.8016,0.2103,0.8585,-0.4147,1.3351,-17.0658,-17.1272
7896,-0.1862,-0.0399,9.7680,-0.2233,0.9228,0.0465,1.3328,-17.0066,-17.0554
7904,-0.1191,-0.1167,9.7890,-0.2459,0.8883,0.0208,1.3335,-16.9447,-16.9870
7912,-0.0320,-0.0934,9.7361,-0.0941,1.0792,0.2763,1.3342,-16.8830,-16.9188
7920,-0.1381,-0.0882,9.6409,0.1816,0.6272,0.2032,1.3294,-16.8252,-16.8504
7928,-0.0915,-0.1477,9.6494,0.4053,0.4242,0.2240,1.3288,-16.7677,-16.7803
7936,-0.1063,-0.1501,9.6722,0.2939,0.3742,0.3933,1.3283,-16.7104,-16.7106
7944,-0.1033,-0.1341,9.7333,0.2620,0.2543,0.4164,1.3301,-16.6557,-16.6423
7952,-0.1211,-0.1833,9.7440,0.4742,0.1370,0.5319,1.3277,-16.6013,-16.5815
7960,-0.1135,-0.1527,9.7628,0.6158,0.5155,0.8397,1.3211,-16.5447,-16.5144
7968,-0.1053,-0.1528,9.7543,0.3992,0.4694,0.8860,1.3222,-16.4872,-16.4505
7976,-0.1593,-0.0672,9.7384,0.4027,0.4601,1.0210,1.3234,-16.4299,-16.3868
7984,-0.1572,-0.0263,9.7773,0.5367,0.3418,1.4300,1.3227,-16.3758,-16.3204
7992,-0.0934,-0.0033,9.6859,0.4676,0.3540,1.1652,1.3220,-16.3220,-16.2543
8000,-0.0907,-0.0094,9.7261,0.6388,0.2936,1.3493,1.3183,-16.2696,-16.1914
8008,-0.1548,0.0297,9.6942,0.5785,0.5879,1.3173,1.3159,-16.2138,-16.1364
8016,-0.1499,0.0186,9.7360,0.4115,0.3840,1.5347,1.3134,-16.1583,-16.0816
8024,-0.1960,0.0619,9.7387,0.3452,0.4851,1.6947,1.3109,-16.1030,-16.0270
8032,-0.1768,0.0523,9.8144,0.3484,0.4510,1.7889,1.3096,-16.0492,-15.9656
8040,-0.1329,0.0455,9.8488,0.2955,0.6771,1.8364,1.3082,-15.9955,-15.9044
8048,-0.1155,0.0015,9.9014,0.1222,0.8986,1.7858,1.3057,-15.9392,-15.8434
8056,-0.0825,0.0177,9.8815,0.3112,0.7292,2.0867,1.3032,-15.8831,-15.7768
8064,-0.1205,0.0355,9.8567,0.2705,0.4231,2.1985,1.3007,-15.8272,-15.7104
8072,-0.1817,-0.0098,9.7796,0.1490,0.3837,2.2094,1.3023,-15.7686,-15.6502
8080,-0.1433,-0.0672,9.7781,0.4141,0.5141,2.2891,1.3032,-15.7144,-15.5878
8088,-0.1272,-0.0600,9.8014,0.3263,0.1055,2.4961,1.3042,-15.6604,-15.5257
8096,-0.1131,-0.0384,9.7988,0.1997,0.3253,2.5686,1.3086,-15.6102,-15.4644
8104,-0.0890,-0.0630,9.7891,0.3480,0.4982,2.5260,1.3106,-15.5578,-15.4045
8112,-0.1487,-0.0725,9.8004,0.3484,0.3143,2.3812,1.3115,-15.5027,-15.3449
8120,-0.1581,-0.0698,9.7997,0.3301,0.2343,2.2188,1.3135,-15.4432,-15.2808
8128,-0.1529,-0.0737,9.8337,0.3287,0.5366,2.2021,1.3155,-15.3840,-15.2170
8136,-0.1983,-0.0936,9.7820,0.1806,0.8576,2.1782,1.3180,-15.3349,-15.1528
8144,-0.1742,-0.0738,9.7216,0.4097,1.0019,2.1846,1.3141,-15.2912,-15.0993
8152,-0.1962,-0.0427,9.7438,0.2554,1.1666,1.9721,1.3132,-15.2418,-15.0408
8160,-0.1582,-0.0624,9.7918,0.0893,1.0574,2.1236,1.3116,-15.1846,-14.9814
8168,-0.1622,-0.0410,9.7992,0.1063,1.2996,1.4524,1.3101,-15.1277,-14.9222
8176,-0.0632,0.0102,9.8268,0.0053,1.2619,1.2000,1.3085,-15.0710,-14.8632
8184,-0.0989,0.0120,9.7890,0.0927,1.2446,0.7185,1.3069,-15.0185,-14.7993
8192,-0.0511,0.0190,9.8308,0.1070,1.3133,0.7862,1.3053,-14.9663,-14.7356
8200,-0.1053,-0.0148,9.7958,-0.2660,1.1017,0.5335,1.3061,-14.9137,-14.6767
8208,-0.0295,-0.0102,9.7960,-0.4894,1.2193,0.3692,1.3067,-14.8613,-14.6181
8216,-0.0620,-0.0138,9.7688,-0.6417,1.1105,0.2868,1.3074,-14.8092,-14.5597
8224,-0.0901,-0.0354,9.7579,-0.7393,0.6757,0.2266,1.3018,-14.7521,-14.5021
8232,-0.0167,-0.0257,9.8018,-0.4807,0.5640,0.2944,1.3024,-14.6987,-14.4441
8240,-0.0127,-0.0388,9.8224,-0.1907,0.4518,0.4739,1.3042,-14.6443,-14.3921
8248,-0.0095,-0.0160,9.7481,-0.4787,0.0672,0.5415,1.3060,-14.5902,-14.3403
8256,-0.0344,-0.0259,9.7596,-0.5754,-0.1459,0.4702,1.3049,-14.5409,-14.2858
8264,-0.0154,-0.0371,9.7642,-0.5826,-0.1684,0.7087,1.3061,-14.4935,-14.2292
8272,-0.0015,-0.0045,9.7851,-0.4695,-0.1258,1.0994,1.3049,-14.4428,-14.1791
8280,0.0102,-0.0255,9.7777,-0.2200,-0.3412,1.1050,1.3038,-14.3924,-14.1291
8288,0.0796,-0.0678,9.7432,-0.3654,-0.4004,1.2384,1.3044,-14.3467,-14.0726
8296,0.1204,-0.0819,9.7497,0.0769,-0.2918,1.3366,1.3060,-14.2995,-14.0151
8304,0.2012,-0.0755,9.8454,0.0785,-0.3932,1.0972,1.3071,-14.2547,-13.9624
8312,0.2145,-0.0716,9.8855,0.0507,-0.3915,1.0603,1.3104,-14.2068,-13.9110
8320,0.2567,-0.0812,9.8289,-0.3225,-0.0726,1.0729,1.3137,-14.1590,-13.8597
8328,0.2735,-0.1245,9.7981,-0.3461,0.2217,0.6744,1.3170,-14.1114,-13.8087
8336,0.2909,-0.1460,9.8446,-0.3446,0.5245,0.5546,1.3130,-14.0606,-13.7562
8344,0.2971,-0.1481,9.7996,-0.3539,0.6514,0.5574,1.3089,-14.0101,-13.7038
8352,0.2872,-0.1682,9.7994,-0.0614,0.9434,0.8880,1.3093,-13.9586,-13.6517
8360,0.3015,-0.1691,9.7865,0.0929,0.9159,0.9936,1.3098,-13.9074,-13.5997
8368,0.3327,-0.1544,9.8076,0.2618,1.0737,1.1958,1.3102,-13.8563,-13.5480
8376,0.3536,-0.1639,9.7803,0.2180,1.1232,1.6346,1.3061,-13.8083,-13.4981
8384,0.4226,-0.1716,9.8111,-0.0932,0.9946,1.6568,1.3076,-13.7604,-13.4428
8392,0.3525,-0.1745,9.7912,0.0758,0.9623,1.8380,1.3058,-13.7194,-13.3994
8400,0.2645,-0.1543,9.7307,0.2242,0.8327,1.9527,1.3039,-13.6786,-13.3562
8408,0.2928,-0.1547,9.7576,0.3580,0.7674,2.1050,1.3021,-13.6335,-13.3048
8416,0.2669,-0.1746,9.7765,0.3180,0.7050,2.3040,1.3019,-13.5841,-13.2563
8424,0.2650,-0.1421,9.7521,0.2691,0.8853,2.1476,1.3006,-13.5389,-13.2075
8432,0.2267,-0.1186,9.7123,0.1023,0.5457,2.4060,1.2982,-13.4921,-13.1588
8440,0.2331,-0.1247,9.7427,0.2415,0.7704,2.6078,1.2958,-13.4455,-13.1104
8448,0.2270,-0.1352,9.7352,0.5266,0.5905,2.6728,1.2973,-13.3991,-13.0593
8456,0.1683,-0.1105,9.7266,0.8152,0.5518,2.1590,1.2932,-13.3545,-13.0012
8464,0.1520,-0.0860,9.7361,0.9205,0.3202,1.9823,1.2880,-13.3041,-12.9505
8472,0.1154,-0.1042,9.7242,0.9786,0.3413,1.8960,1.2828,-13.2538,-12.9001
8480,0.0968,-0.0670,9.7089,0.9621,0.2362,1.8054,1.2777,-13.2038,-12.8498
8488,0.1178,-0.0940,9.7274,0.8316,0.3704,1.5348,1.2780,-13.1600,-12.8024
8496,0.1961,-0.0655,9.7842,0.8109,0.5920,1.3214,1.2784,-13.1164,-12.7552
8504,0.1371,-0.0251,9.7677,0.6924,0.5453,1.2694,1.2754,-13.0762,-12.7043
8512,0.1069,0.0150,9.7610,0.6298,0.4632,1.4169,1.2725,-13.0362,-12.6537
8520,0.1210,0.0163,9.7390,0.6126,0.3341,1.6566,1.2696,-12.9964,-12.6032
8528,0.0828,-0.0045,9.7578,0.7001,0.5253,1.7125,1.2683,-12.9474,-12.5523
8536,0.0769,-0.0054,9.7816,0.6131,0.5802,1.9527,1.2692,-12.9035,-12.5022
8544,0.0857,0.0019,9.7882,0.7060,0.5393,2.3263,1.2673,-12.8587,-12.4566
8552,0.0727,-0.0375,9.8306,0.7734,0.4602,2.6569,1.2655,-12.8141,-12.4112
8560,0.1311,-0.0750,9.8334,0.8699,0.3339,2.6985,1.2614,-12.7685,-12.3655
8568,0.1083,-0.0684,9.8418,0.7915,0.0958,2.9888,1.2601,-12.7221,-12.3128
8576,0.1401,-0.0842,9.8586,0.7219,0.0601,3.0051,1.2550,-12.6758,-12.2630
8584,0.2267,-0.1127,9.8651,0.8126,-0.3661,3.0768,1.2559,-12.6302,-12.2183
8592,0.1680,-0.1134,9.8396,1.3074,-0.3042,2.9959,1.2568,-12.5849,-12.1737
8600,0.1526,-0.0981,9.8561,1.3005,-0.2265,2.7986,1.2571,-12.5391,-12.1299
8608,0.1998,-0.0738,9.8606,1.0086,0.0106,2.6926,1.2542,-12.4958,-12.0792
8616,0.1750,-0.1028,9.7999,1.0282,0.1866,2.8045,1.2485,-12.4580,-12.0297
8624,0.1772,-0.0862,9.8330,0.8389,0.4696,2.6956,1.2429,-12.4203,-11.9804
8632,0.2138,-0.0676,9.8529,0.7405,0.6842,2.5007,1.2372,-12.3829,-11.9313
8640,0.2328,-0.0640,9.8640,0.9237,0.6228,2.4024,1.2387,-12.3379,-11.8829
8648,0.1762,-0.1130,9.7785,0.9177,0.4120,2.3137,1.2401,-12.2932,-11.8347
8656,0.1870,-0.1233,9.7229,0.8052,0.2692,2.5462,1.2388,-12.2459,-11.7920
8664,0.2081,-0.1362,9.7437,0.9696,0.2339,2.7793,1.2375,-12.1988,-11.7496
8672,0.2162,-0.1638,9.7133,0.9242,0.1788,2.8447,1.2362,-12.1518,-11.7072
8680,0.1835,-0.1629,9.7077,0.9074,0.0088,2.7767,1.2333,-12.1137,-11.6645
8688,0.1398,-0.1524,9.7021,0.9260,-0.2044,2.9783,1.2315,-12.0704,-11.6203
8696,0.1618,-0.0756,9.7281,0.9279,0.2290,2.8511,1.2312,-12.0288,-11.5752
8704,0.1825,-0.0438,9.7889,0.8256,0.4728,2.9935,1.2310,-11.9874,-11.5303
8712,0.2082,-0.0839,9.7852,0.8611,0.2766,3.1669,1.2297,-11.9483,-11.4780
8720,0.2022,-0.0564,9.7923,0.9218,0.2143,3.2128,1.2300,-11.9104,-11.4275
8728,0.1809,-0.0356,9.8115,0.7691,0.3441,3.1473,1.2319,-11.8722,-11.3858
8736,0.1807,-0.0354,9.8148,0.7271,0.3669,3.1274,1.2376,-11.8319,-11.3437
8744,0.2575,-0.0070,9.8615,0.6737,0.1913,2.9990,1.2432,-11.7918,-11.3017
8752,0.2086,-0.0174,9.8527,0.5985,0.2768,2.9562,1.2440,-11.7524,-11.2513
8760,0.1766,0.0061,9.8702,0.2760,0.3211,2.6566,1.2436,-11.7093,-11.2075
8768,0.1381,0.0365,9.8642,0.4636,0.0196,2.4875,1.2439,-11.6697,-11.1634
8776,0.1812,-0.0062,9.8843,0.4189,0.2459,2.2244,1.2441,-11.6302,-11.1194
8784,0.2529,-0.0417,9.9262,0.2243,0.1210,2.4448,1.2443,-11.5908,-11.0756
8792,0.1539,-0.0469,9.8352,0.3714,0.2788,2.4423,1.2477,-11.5522,-11.0324
8800,0.1718,-0.0265,9.8448,0.3575,0.1311,2.3732,1.2510,-11.5137,-10.9894
8808,0.1670,-0.0495,9.8126,0.3975,0.1339,2.5044,1.2464,-11.4700,-10.9439
8816,0.1996,-0.0394,9.8207,0.4438,0.1925,2.7046,1.2418,-11.4264,-10.8986
8824,0.2099,-0.0425,9.7767,0.5867,0.2432,2.7307,1.2372,-11.3831,-10.8534
8832,0.2379,-0.0103,9.7677,0.4620,0.2997,2.9263,1.2357,-11.3446,-10.8153
8840,0.2146,-0.0066,9.7528,0.4735,0.2338,3.1107,1.2312,-11.3127,-10.7704
8848,0.2380,-0.0571,9.7917,0.4017,0.5147,2.9537,1.2319,-11.2751,-10.7283
8856,0.2743,-0.1018,9.7805,0.1758,0.6313,2.9662,1.2326,-11.2377,-10.6864
8864,0.1614,-0.1227,9.7265,0.0291,0.2442,2.9329,1.2296,-11.2019,-10.6420
8872,0.1453,-0.1106,9.7233,0.2835,0.3407,2.8717,1.2293,-11.1621,-10.6004
8880,0.1608,-0.0869,9.7322,0.2174,0.5316,2.7385,1.2289,-11.1224,-10.5563
8888,0.1384,-0.0559,9.7302,0.1835,0.3995,2.6244,1.2270,-11.0844,-10.5124
8896,0.0890,-0.0083,9.7599,0.2552,0.5852,2.2780,1.2250,-11.0466,-10.4686
8904,0.0210,-0.0526,9.7175,0.2250,0.8107,1.8028,1.2294,-11.0115,-10.4260
8912,0.0328,-0.0172,9.7784,0.1855,0.7944,1.4923,1.2338,-10.9766,-10.3836
8920,-0.0175,0.0086,9.8081,0.2197,0.9255,1.0328,1.2366,-10.9382,-10.3434
8928,-0.0184,0.0223,9.7984,0.4550,0.7682,0.8893,1.2393,-10.8998,-10.3034
8936,-0.0643,0.0607,9.7742,0.3655,0.6791,0.8188,1.2421,-10.8616,-10.2635
8944,-0.0498,0.0293,9.7724,0.3465,0.9219,0.6180,1.2406,-10.8226,-10.2275
8952,-0.0362,0.0165,9.7338,0.4909,1.1194,0.6687,1.2391,-10.7836,-10.1915
8960,-0.0399,0.0208,9.7317,0.5011,1.3802,0.4638,1.2403,-10.7474,-10.1520
8968,-0.0009,0.0206,9.7015,0.2282,1.0430,0.5666,1.2414,-10.7114,-10.1127
8976,-0.0166,0.0477,9.7139,0.4152,1.0779,0.7342,1.2425,-10.6755,-10.0735
8984,0.0052,0.0673,9.7159,0.4393,1.1006,0.6998,1.2394,-10.6350,-10.0376
8992,0.0081,0.1009,9.7274,0.6518,1.0903,0.8135,1.2374,-10.5999,-9.9981
9000,0.0348,0.1377,9.7382,0.5563,1.0777,1.1570,1.2385,-10.5602,-9.9567
9008,0.0786,0.1446,9.7516,0.5902,0.8258,1.5894,1.2396,-10.5207,-9.9154
9016,0.1036,0.1226,9.7942,0.6227,0.6408,1.9310,1.2407,-10.4855,-9.8769
9024,0.1536,0.0590,9.8096,0.9472,0.6639,1.9509,1.2403,-10.4457,-9.8343
9032,0.1036,0.0114,9.7721,1.0760,0.5580,2.0979,1.2398,-10.4061,-9.7966
9040,0.0616,-0.0161,9.7809,0.7753,0.2941,2.1186,1.2404,-10.3692,-9.7564
9048,0.0942,-0.0347,9.7893,0.8130,0.0924,2.2503,1.2409,-10.3325,-9.7164
9056,0.1105,-0.0565,9.7674,0.8945,0.0889,2.6616,1.2425,-10.2959,-9.6754
9064,0.0896,-0.0457,9.7958,0.7457,0.2561,2.4975,1.2441,-10.2594,-9.6346
9072,0.1359,-0.0683,9.8260,0.5474,0.4587,2.6180,1.2472,-10.2257,-9.5950
9080,0.1378,-0.0500,9.8475,0.3204,0.6152,3.0719,1.2504,-10.1921,-9.5555
9088,0.1430,-0.0507,9.8523,0.2767,0.2234,3.2286,1.2535,-10.1586,-9.5162
9096,0.2125,-0.0450,9.8776,0.3976,0.1608,3.5464,1.2487,-10.1253,-9.4811
9104,0.1469,-0.0208,9.8578,0.0865,0.2476,3.7917,1.2440,-10.0920,-9.4462
9112,0.1800,-0.0343,9.8019,0.2824,-0.1814,3.8716,1.2435,-10.0605,-9.4088
9120,0.1658,-0.0288,9.8293,0.2297,-0.5357,4.0653,1.2419,-10.0228,-9.3747
9128,0.2208,-0.0671,9.8345,0.1313,-0.3438,4.2505,1.2404,-9.9853,-9.3407
9136,0.1307,-0.0353,9.8014,0.0745,-0.4642,4.3424,1.2414,-9.9479,-9.3016
9144,0.1290,-0.0270,9.7537,0.0443,-0.5634,4.3715,1.2414,-9.9122,-9.2641
9152,0.1861,-0.0463,9.7470,0.1300,-0.3143,4.6953,1.2414,-9.8751,-9.2253
9160,0.1909,-0.0374,9.7687,0.0999,-0.1454,5.2077,1.2413,-9.8396,-9.1892
9168,0.1478,-0.0188,9.7373,0.0765,-0.1199,5.3857,1.2413,-9.8043,-9.1532
9176,0.1244,-0.0599,9.7180,0.4302,-0.4022,5.5665,1.2439,-9.7692,-9.1086
9184,0.1483,-0.0729,9.7570,0.3203,-0.4428,5.9367,1.2490,-9.7341,-9.0692
9192,0.2181,-0.1266,9.7859,0.3646,-0.4363,6.2855,1.2515,-9.7002,-9.0259
9200,0.1953,-0.1228,9.7565,0.3803,-0.5527,6.4403,1.2581,-9.6675,-8.9874
9208,0.2784,-0.1212,9.7678,0.1874,-0.5787,6.8630,1.2648,-9.6349,-8.9490
9216,0.2626,-0.2213,9.7037,0.3495,-0.4436,7.2406,1.2713,-9.6024,-8.9108
9224,0.3107,-0.2122,9.7600,0.6965,-0.3917,7.3483,1.2779,-9.5675,-8.8753
9232,0.1957,-0.1743,9.7199,0.6710,-0.4407,7.4993,1.2844,-9.5326,-8.8399
9240,0.2815,-0.1801,9.7118,0.5453,-0.4183,7.4117,1.2909,-9.4979,-8.8046
9248,0.3023,-0.1584,9.6976,0.6678,-0.6609,7.5066,1.2917,-9.4690,-8.7689
9256,0.3265,-0.1602,9.7295,0.5716,-0.5995,7.4853,1.2925,-9.4402,-8.7333
9264,0.3121,-0.1186,9.7560,0.4689,-0.4981,7.3770,1.2989,-9.4069,-8.7010
9272,0.2466,-0.0691,9.7454,0.3174,-0.4118,7.2815,1.3048,-9.3773,-8.6641
9280,0.2479,-0.0649,9.7308,0.1298,-0.3267,6.8967,1.3107,-9.3478,-8.6274
9288,0.1803,-0.0355,9.7495,0.3291,-0.6452,6.5795,1.3160,-9.3174,-8.5903
9296,0.1068,-0.0459,9.7627,-0.0563,-0.6219,6.4041,1.3182,-9.2906,-8.5563
9304,0.0112,0.0067,9.7820,0.1271,-0.5142,5.8898,1.3204,-9.2584,-8.5226
9312,-0.0006,0.0015,9.7999,0.0626,-0.3259,5.3126,1.3232,-9.2216,-8.4894
9320,0.0014,0.0081,9.7865,0.4755,-0.4391,4.8699,1.3259,-9.1849,-8.4563
9328,-0.0049,0.0419,9.8313,0.5637,-0.3288,4.6973,1.3321,-9.1500,-8.4224
9336,-0.0817,0.0288,9.8104,0.4480,-0.0233,4.4230,1.3343,-9.1197,-8.3865
9344,-0.1038,0.0397,9.8237,0.4254,-0.0964,3.8886,1.3380,-9.0866,-8.3492
9352,-0.0573,0.0714,9.8358,0.1984,-0.1397,3.7162,1.3401,-9.0540,-8.3084
9360,-0.0303,0.0887,9.8404,0.1254,-0.2371,3.3941,1.3422,-9.0215,-8.2678
9368,-0.0614,0.0961,9.8769,-0.0324,-0.1809,3.2967,1.3443,-8.9892,-8.2273
9376,-0.1378,0.0719,9.8785,0.1340,-0.1272,3.5155,1.3500,-8.9595,-8.1937
9384,-0.1360,0.0546,9.8931,0.0691,-0.1878,3.4395,1.3556,-8.9300,-8.1601
9392,-0.1853,0.0616,9.9023,0.0017,-0.1631,3.2228,1.3566,-8.8934,-8.1271
9400,-0.2039,0.0625,9.8700,0.0520,0.2525,3.3729,1.3576,-8.8569,-8.0943
9408,-0.2895,0.0830,9.9010,0.1293,0.1219,2.9964,1.3586,-8.8206,-8.0616
9416,-0.2646,0.1037,9.9189,0.2833,0.3544,2.8364,1.3622,-8.7921,-8.0264
9424,-0.2629,0.0719,9.8910,-0.0014,0.1501,3.0968,1.3647,-8.7611,-7.9904
9432,-0.1585,0.0883,9.9245,0.0356,0.2507,2.7990,1.3693,-8.7302,-7.9545
9440,-0.0963,0.1076,9.8797,0.1110,0.6748,2.9410,1.3738,-8.6923,-7.9227
9448,-0.0920,0.1260,9.8559,0.0418,0.6858,3.2394,1.3788,-8.6591,-7.8906
9456,-0.1090,0.0680,9.8272,-0.1470,0.8056,3.3141,1.3807,-8.6230,-7.8555
9464,-0.0334,0.0328,9.8371,0.0777,0.8722,3.2442,1.3867,-8.5941,-7.8211
9472,0.0142,0.0073,9.8225,0.3993,0.6852,3.3747,1.3927,-8.5653,-7.7868
9480,-0.0121,0.0339,9.8260,0.6455,0.3811,3.1768,1.3956,-8.5346,-7.7505
9488,0.0558,0.0725,9.8835,0.3556,0.5596,3.2436,1.3954,-8.5060,-7.7129
9496,0.0903,0.0683,9.8512,0.3957,0.6422,3.1901,1.4008,-8.4730,-7.6769
9504,0.0809,0.0663,9.7992,-0.0086,0.5853,3.4136,1.4042,-8.4391,-7.6456
9512,0.0420,0.0745,9.7736,-0.2966,0.6482,3.4861,1.4075,-8.4053,-7.6144
9520,0.0691,0.0897,9.7503,-0.4467,0.6017,3.2140,1.4109,-8.3716,-7.5834
9528,0.0905,0.0784,9.8086,-0.2755,0.6718,3.0925,1.4157,-8.3396,-7.5534
9536,0.0953,0.0723,9.8090,-0.4291,0.4430,3.1016,1.4205,-8.3076,-7.5235
9544,0.0882,0.0253,9.7851,-0.3067,0.4694,2.9157,1.4213,-8.2783,-7.4928
9552,0.1415,-0.0182,9.8246,-0.5683,0.2494,2.8819,1.4220,-8.2491,-7.4621
9560,0.2084,-0.0525,9.7924,-0.5865,0.4683,2.8255,1.4227,-8.2201,-7.4315
9568,0.1518,-0.0357,9.8225,-0.6705,0.4989,2.6383,1.4295,-8.1906,-7.3965
9576,0.1708,-0.0897,9.7774,-0.4735,0.8669,2.4140,1.4272,-8.1572,-7.3632
9584,0.2276,-0.0639,9.7770,-0.4398,1.2642,1.9061,1.4315,-8.1289,-7.3299
9592,0.1815,0.0974,9.6661,-0.2983,1.1880,1.2285,1.4357,-8.1008,-7.2968
9600,0.1631,0.1132,9.6481,-0.2403,1.0192,1.0951,1.4384,-8.0692,-7.2673
9608,0.1682,0.1698,9.6537,-0.0488,1.0205,0.5036,1.4401,-8.0387,-7.2394
9616,0.1173,0.1672,9.6328,-0.3110,1.2083,0.1087,1.4422,-8.0063,-7.2071
9624,0.0767,0.2146,9.6954,-0.4524,1.1906,-0.6397,1.4394,-7.9806,-7.1739
9632,0.1375,0.1859,9.6978,-0.3850,1.5097,-1.4753,1.4365,-7.9550,-7.1407
9640,0.1779,0.1700,9.7461,-0.6832,1.1562,-2.0504,1.4392,-7.9249,-7.1083
9648,0.1657,0.1165,9.6977,-0.4963,1.1114,-2.3951,1.4393,-7.8975,-7.0759
9656,0.1419,0.1313,9.7163,-0.4110,1.1166,-3.3593,1.4390,-7.8656,-7.0441
9664,0.1837,0.1087,9.7300,-0.4680,1.3030,-3.9426,1.4386,-7.8339,-7.0125
9672,0.1923,0.0788,9.6759,-0.4825,1.3691,-4.3378,1.4383,-7.8022,-6.9809
9680,0.2079,0.0958,9.7335,-0.6405,1.5097,-4.4651,1.4389,-7.7722,-6.9530
9688,0.1792,0.0930,9.7651,-0.5595,1.1295,-4.4561,1.4396,-7.7423,-6.9251
9696,0.2407,0.0655,9.8065,-0.4820,1.0353,-4.0368,1.4322,-7.7155,-6.8944
9704,0.2822,0.0027,9.8526,-0.7040,0.8545,-4.0893,1.4248,-7.6888,-6.8638
9712,0.2765,0.0074,9.8537,-0.6655,0.5990,-3.9661,1.4175,-7.6621,-6.8332
9720,0.3924,-0.0621,9.7988,-0.8128,0.4372,-3.8482,1.4126,-7.6346,-6.8003
9728,0.4004,-0.0681,9.8014,-0.8949,0.5093,-3.8742,1.4129,-7.6057,-6.7674
9736,0.4331,-0.0963,9.7819,-0.7708,0.7942,-3.5204,1.4056,-7.5718,-6.7347
9744,0.4581,-0.1109,9.7693,-0.5828,0.7359,-3.1181,1.3983,-7.5381,-6.7021
9752,0.4775,-0.0635,9.7748,-0.5523,0.7362,-3.0907,1.4001,-7.5060,-6.6761
9760,0.5129,-0.0347,9.7246,-0.3578,0.8378,-2.9338,1.4048,-7.4770,-6.6422
9768,0.5545,-0.0793,9.7543,-0.1772,1.1190,-2.9971,1.3985,-7.4496,-6.6129
9776,0.4828,-0.0982,9.7129,-0.0845,1.1239,-3.2257,1.3973,-7.4223,-6.5827
9784,0.3892,-0.0807,9.7378,-0.4091,1.2539,-3.6496,1.3961,-7.3951,-6.5526
9792,0.3765,-0.0412,9.7850,-0.3329,1.1995,-3.8576,1.3928,-7.3645,-6.5257
9800,0.3490,-0.0164,9.7994,-0.2681,1.1182,-3.9552,1.3906,-7.3330,-6.4953
9808,0.3247,0.0134,9.8102,-0.1154,1.2111,-3.9472,1.3874,-7.3066,-6.4660
9816,0.3113,0.0348,9.7994,0.0093,1.3453,-4.0328,1.3842,-7.2803,-6.4368
9824,0.2996,0.0529,9.8266,0.0272,1.1723,-4.0028,1.3810,-7.2541,-6.4077
9832,0.3132,0.0446,9.8116,-0.0410,1.2202,-3.8087,1.3788,-7.2255,-6.3762
9840,0.3132,0.0317,9.7879,-0.0262,1.5433,-3.9831,1.3766,-7.1970,-6.3448
9848,0.3469,0.0236,9.8130,-0.0147,1.1776,-3.9605,1.3744,-7.1721,-6.3175
9856,0.3755,0.0322,9.8426,-0.0758,0.9560,-3.6856,1.3722,-7.1473,-6.2903
9864,0.3281,0.0155,9.7882,0.2952,0.8800,-3.4334,1.3701,-7.1225,-6.2632
9872,0.3253,0.0003,9.8032,0.0526,0.9406,-3.3068,1.3689,-7.0973,-6.2352
9880,0.4107,-0.0476,9.7736,0.1193,0.6680,-3.0739,1.3717,-7.0653,-6.2108
9888,0.4078,-0.0764,9.7736,-0.1210,0.6099,-2.6804,1.3706,-7.0339,-6.1770
9896,0.4616,-0.0651,9.8005,-0.2014,0.7091,-2.5948,1.3694,-7.0025,-6.1433
9904,0.2466,-0.0407,9.8276,0.0098,0.9292,-2.3529,1.3702,-6.9738,-6.1122
9912,0.3313,0.0533,9.8821,-0.0390,1.0757,-2.0763,1.3665,-6.9466,-6.0812
9920,0.2667,0.0860,9.9005,0.1143,1.2638,-1.8998,1.3629,-6.9181,-6.0528
9928,0.0557,0.2012,9.8288,0.1490,1.3024,-1.9284,1.3608,-6.8931,-6.0215
9936,-0.1153,0.2667,9.8700,0.1875,1.2112,-1.7717,1.3586,-6.8683,-5.9904
9944,-0.1292,0.2696,9.7661,-0.0344,0.7908,-1.3232,1.3580,-6.8395,-5.9652
9952,-0.0630,0.2102,9.8015,-0.1319,0.6100,-1.2916,1.3574,-6.8133,-5.9417
9960,-0.0240,0.1446,9.8408,-0.1132,0.7598,-1.4614,1.3592,-6.7897,-5.9143
9968,-0.0881,0.0921,9.8677,-0.0019,0.8791,-1.3651,1.3610,-6.7662,-5.8870
9976,-0.1633,0.0928,9.8483,0.0485,0.9371,-1.1664,1.3629,-6.7427,-5.8597
9984,-0.1417,0.1090,9.8093,0.0700,0.6673,-1.2083,1.3622,-6.7159,-5.8291
9992,-0.1690,0.0348,9.8547,0.1306,0.6812,-1.1738,1.3615,-6.6892,-5.7986
10000,-0.1296,-0.0168,9.7837,0.1405,0.6439,-0.9887,1.3624,-6.6615,-5.7711
10008,-0.0820,-0.0349,9.7486,0.1234,0.8403,-1.0278,1.3632,-6.6340,-5.7438
10016,-0.0932,0.0258,9.7774,0.0509,1.0707,-1.0358,1.3640,-6.6065,-5.7165
10024,-0.0367,0.0274,9.7698,0.0590,1.1070,-0.6915,1.3639,-6.5821,-5.6869
10032,-0.1470,0.0790,9.7651,-0.0746,1.2324,-0.6342,1.3612,-6.5578,-5.6573
10040,-0.1538,0.0782,9.7669,0.0190,1.1736,-0.4434,1.3610,-6.5296,-5.6254
10048,-0.1581,0.0644,9.8085,0.0365,1.1148,-0.4743,1.3609,-6.5015,-5.5936
10056,-0.1401,0.0664,9.8257,0.0905,1.0665,-0.2425,1.3612,-6.4780,-5.5639
10064,-0.0615,0.0951,9.8049,-0.0124,0.6417,0.0511,1.3605,-6.4521,-5.5342
10072,0.0046,0.0819,9.8639,-0.0229,0.7635,0.1506,1.3584,-6.4262,-5.5047
10080,0.0126,0.0663,9.7601,-0.2889,0.7706,0.3497,1.3612,-6.3940,-5.4753
10088,-0.0718,0.0445,9.7455,-0.1566,0.6760,0.6601,1.3640,-6.3620,-5.4460
10096,-0.0174,0.0598,9.7523,-0.2061,0.3376,0.6583,1.3618,-6.3350,-5.4192
10104,-0.0739,0.0372,9.7470,-0.1895,0.1367,0.8432,1.3636,-6.3080,-5.3950
10112,-0.0722,-0.0074,9.7988,-0.1575,0.0352,1.1347,1.3630,-6.2772,-5.3660
10120,-0.1212,0.0229,9.8092,-0.2230,0.2048,1.2374,1.3623,-6.2466,-5.3370
10128,-0.1154,0.0280,9.7785,-0.1923,-0.2250,1.2104,1.3616,-6.2160,-5.3081
10136,-0.1056,0.0070,9.7639,-0.3362,-0.4680,1.0378,1.3624,-6.1865,-5.2789
10144,-0.1150,-0.0064,9.7448,-0.4739,-0.1884,0.7955,1.3632,-6.1571,-5.2497
10152,-0.0187,0.0110,9.7754,-0.4588,-0.0650,0.6730,1.3635,-6.1283,-5.2211
10160,0.0261,-0.0193,9.7479,-0.7724,0.5356,0.6946,1.3638,-6.0997,-5.1927
10168,0.0511,-0.0111,9.7435,-0.7710,-0.0553,0.7446,1.3641,-6.0711,-5.1643
10176,0.0569,-0.0064,9.7410,-0.4736,-0.4684,0.7791,1.3639,-6.0421,-5.1331
10184,0.0393,-0.0369,9.7464,-0.4719,-1.0714,0.6707,1.3564,-6.0157,-5.1069
10192,0.1396,-0.0648,9.8241,-0.5903,-1.0507,0.5138,1.3542,-5.9888,-5.0788
10200,0.0933,-0.0255,9.8011,-0.3595,-1.5323,0.5610,1.3521,-5.9621,-5.0508
10208,0.1497,-0.0650,9.8172,-0.1495,-1.1528,0.6622,1.3490,-5.9365,-5.0229
10216,0.0236,-0.0529,9.7735,-0.0473,-1.2992,0.5296,1.3493,-5.9099,-4.9936
10224,0.1003,-0.0120,9.8377,-0.2056,-1.5192,0.2455,1.3462,-5.8834,-4.9659
10232,0.0791,-0.0150,9.8262,-0.3676,-1.2337,-0.0182,1.3466,-5.8580,-4.9383
10240,0.0736,-0.0450,9.8622,-0.3172,-1.0006,-0.1157,1.3469,-5.8327,-4.9107
10248,0.1569,-0.0107,9.8688,-0.3384,-0.7190,-0.1236,1.3463,-5.8075,-4.8799
10256,0.2415,-0.0052,9.8265,-0.0733,-0.8071,-0.0538,1.3466,-5.7863,-4.8535
10264,0.3043,-0.0216,9.8325,0.2256,-0.5713,-0.1631,1.3440,-5.7618,-4.8243
10272,0.1721,-0.0856,9.6429,0.4687,-0.2658,-0.1449,1.3414,-5.7373,-4.7952
10280,0.1277,-0.0762,9.6767,0.3918,0.2316,-0.2262,1.3388,-5.7129,-4.7662
10288,0.2045,-0.0653,9.7438,0.4330,0.3740,-0.5786,1.3387,-5.6851,-4.7373
10296,0.1420,-0.0915,9.7212,0.3231,0.4701,-0.5583,1.3386,-5.6575,-4.7085
10304,0.2803,-0.0541,9.7221,0.2979,0.4900,-0.7041,1.3331,-5.6328,-4.6803
10312,0.2812,-0.0322,9.7493,0.2552,0.2558,-0.9023,1.3276,-5.6083,-4.6522
10320,0.2054,0.0132,9.7867,0.3957,0.5091,-1.1638,1.3221,-5.5838,-4.6242
10328,0.2894,-0.0127,9.8238,0.4074,0.1886,-1.1845,1.3215,-5.5634,-4.5987
10336,0.2789,-0.0389,9.8450,0.3545,0.0662,-1.1003,1.3234,-5.5416,-4.5723
10344,0.2061,0.0030,9.8063,0.3040,0.3598,-1.0892,1.3224,-5.5193,-4.5441
10352,0.2431,0.0214,9.7973,0.1544,0.3445,-0.7985,1.3223,-5.4946,-4.5199
10360,0.3290,0.0061,9.7896,0.2033,0.2819,-0.6112,1.3222,-5.4701,-4.4958
10368,0.3271,-0.0273,9.8059,0.2714,0.3288,-0.3148,1.3216,-5.4476,-4.4732
10376,0.3790,-0.0148,9.7983,0.2591,0.4962,-0.1113,1.3181,-5.4241,-4.4468
10384,0.4365,-0.0148,9.7978,0.2501,0.4350,-0.1221,1.3137,-5.3993,-4.4234
10392,0.3387,0.0016,9.7614,0.2842,0.3845,-0.2044,1.3092,-5.3746,-4.4000
10400,0.4310,-0.0068,9.7994,0.3754,0.5175,-0.4324,1.3082,-5.3504,-4.3773
10408,0.4189,-0.0394,9.7852,0.3719,0.7113,-0.4158,1.3101,-5.3259,-4.3541
10416,0.3787,-0.0198,9.7814,0.3447,0.9820,-0.5652,1.3032,-5.3014,-4.3286
10424,0.3802,0.0085,9.7693,0.2972,0.9849,-0.5828,1.2963,-5.2770,-4.3032
10432,0.3602,0.0199,9.7925,0.2279,1.0836,-0.5543,1.2895,-5.2527,-4.2778
10440,0.4113,0.0353,9.8094,0.1802,1.0714,-0.6763,1.2925,-5.2285,-4.2526
10448,0.4739,-0.0178,9.8497,0.0333,0.9717,-0.8357,1.2954,-5.2043,-4.2274
10456,0.4477,-0.0275,9.8302,0.0902,1.0257,-1.0601,1.2983,-5.1802,-4.1988
10464,0.4462,0.0197,9.8358,0.2112,1.0320,-1.3307,1.3013,-5.1562,-4.1704
10472,0.3944,0.0442,9.8549,0.3110,1.0460,-1.7041,1.3042,-5.1323,-4.1421
10480,0.3684,0.0390,9.8377,0.3663,1.0327,-1.9305,1.3042,-5.1090,-4.1212
10488,0.3750,0.0335,9.8607,0.4433,1.2840,-2.4324,1.2997,-5.0862,-4.0965
10496,0.4042,0.0056,9.8848,0.3036,1.2870,-2.8350,1.2997,-5.0630,-4.0689
10504,0.2908,0.0729,9.8533,0.2126,1.2899,-3.0599,1.2987,-5.0409,-4.0438
10512,0.3781,0.0445,9.8444,0.2643,0.9993,-3.1631,1.2977,-5.0189,-4.0189
10520,0.4443,-0.0012,9.8504,0.1591,0.7721,-2.8964,1.2997,-4.9978,-3.9954
10528,0.4532,-0.0362,9.8646,0.1091,1.0588,-2.9107,1.2987,-4.9701,-3.9741
10536,0.5237,-0.0283,9.8537,0.0506,1.1810,-2.7777,1.2987,-4.9458,-3.9420
10544,0.5369,-0.0643,9.8406,0.0187,0.9058,-2.6478,1.2982,-4.9260,-3.9204
10552,0.4805,-0.0578,9.7486,-0.0678,0.9974,-2.6303,1.2977,-4.9063,-3.8988
10560,0.4400,-0.0542,9.7433,-0.0412,0.8609,-2.4349,1.2957,-4.8857,-3.8774
10568,0.4512,-0.0769,9.7662,-0.1224,0.7571,-2.3014,1.2938,-4.8612,-3.8594
10576,0.4244,-0.0787,9.7619,-0.1254,0.7591,-2.1337,1.2918,-4.8368,-3.8415
10584,0.4038,-0.0676,9.7877,-0.1016,0.7744,-1.8480,1.2869,-4.8184,-3.8198
10592,0.3168,-0.0430,9.7868,-0.0655,0.7170,-1.6708,1.2821,-4.8000,-3.7982
10600,0.2982,-0.0203,9.7920,0.0463,0.7955,-1.3521,1.2772,-4.7817,-3.7767
10608,0.2609,-0.0070,9.7870,0.0760,0.8865,-1.1539,1.2773,-4.7605,-3.7553
10616,0.1898,-0.0100,9.7762,0.0856,0.9282,-1.0204,1.2773,-4.7394,-3.7340
10624,0.2029,-0.0182,9.7719,0.0789,0.8135,-0.9594,1.2774,-4.7183,-3.7128
10632,0.1742,-0.0115,9.7630,0.0457,0.7837,-1.0957,1.2706,-4.6983,-3.6872
10640,0.1938,-0.0273,9.7882,0.0247,0.7739,-0.8661,1.2697,-4.6740,-3.6589
10648,0.1741,-0.0435,9.7832,0.0046,0.7139,-0.7559,1.2678,-4.6502,-3.6370
10656,0.1623,-0.0521,9.7868,0.1347,0.5498,-0.6398,1.2655,-4.6309,-3.6147
10664,0.2099,-0.0773,9.7829,0.1818,0.5156,-0.5954,1.2631,-4.6117,-3.5925
10672,0.2416,-0.0955,9.7856,0.1202,0.6189,-0.4863,1.2598,-4.5853,-3.5719
10680,0.3117,-0.1302,9.7932,0.0639,0.5603,-0.2567,1.2624,-4.5647,-3.5557
10688,0.3974,-0.1228,9.8023,0.0368,0.5683,-0.0504,1.2644,-4.5413,-3.5318
10696,0.4017,-0.1344,9.7936,0.0721,0.4532,0.3308,1.2616,-4.5195,-3.5095
10704,0.4434,-0.1499,9.7927,-0.0620,0.4206,0.4740,1.2587,-4.4977,-3.4872
10712,0.4469,-0.1193,9.7950,-0.1263,0.3120,0.7923,1.2569,-4.4784,-3.4651
10720,0.4274,-0.1244,9.7880,-0.0358,0.3388,0.9847,1.2551,-4.4578,-3.4416
10728,0.4643,-0.1072,9.8181,-0.1280,0.3512,1.2807,1.2532,-4.4372,-3.4181
10736,0.4231,-0.0875,9.8248,-0.1440,0.3363,1.4837,1.2538,-4.4157,-3.3963
10744,0.4058,-0.1106,9.8072,-0.2181,0.2634,1.5685,1.2544,-4.3942,-3.3745
10752,0.3660,-0.1111,9.8004,-0.2009,0.2844,1.6976,1.2550,-4.3729,-3.3528
10760,0.3163,-0.0996,9.8001,-0.2805,0.3151,1.8691,1.2551,-4.3521,-3.3317
10768,0.2754,-0.0870,9.8040,-0.3939,0.4458,1.8304,1.2553,-4.3314,-3.3107
10776,0.2471,-0.0606,9.7989,-0.3264,0.4828,1.7801,1.2563,-4.3155,-3.2888
10784,0.1874,-0.0630,9.7719,-0.3578,0.3902,1.4839,1.2574,-4.2998,-3.2669
10792,0.1519,-0.0630,9.7757,-0.3238,0.4642,1.2354,1.2551,-4.2768,-3.2428
10800,0.1258,-0.0357,9.7792,-0.2913,0.5058,0.9338,1.2542,-4.2587,-3.2245
10808,0.1277,-0.0282,9.7819,-0.3803,0.5561,0.5306,1.2519,-4.2359,-3.2030
10816,0.0920,-0.0306,9.7952,-0.3320,0.4443,0.2758,1.2496,-4.2131,-3.1815
10824,0.0953,-0.0236,9.7959,-0.3952,0.4680,-0.0452,1.2497,-4.1929,-3.1626
10832,0.1233,0.0041,9.8052,-0.4156,0.3547,-0.2375,1.2450,-4.1712,-3.1422
10840,0.1240,-0.0005,9.8291,-0.3337,0.1743,-0.4881,1.2427,-4.1496,-3.1162
10848,0.1242,-0.0141,9.8330,-0.3462,0.2019,-0.6957,1.2429,-4.1281,-3.0960
10856,0.1345,-0.0215,9.8337,-0.2834,0.1642,-0.8489,1.2430,-4.1066,-3.0759
10864,0.1214,-0.0067,9.8399,-0.2020,0.2562,-1.0114,1.2422,-4.0877,-3.0559
10872,0.0927,0.0203,9.8477,-0.2095,0.2108,-1.3161,1.2419,-4.0732,-3.0380
10880,0.1091,0.0147,9.8375,-0.1847,0.1594,-1.5489,1.2415,-4.0587,-3.0201
10888,0.0506,0.0515,9.8392,-0.2997,0.1769,-2.0061,1.2388,-4.0418,-2.9974
10896,0.0710,0.0748,9.8430,-0.2896,0.2363,-2.3953,1.2360,-4.0250,-2.9748
10904,0.0558,0.1027,9.8350,-0.3279,0.1678,-2.7675,1.2333,-4.0083,-2.9523
10912,0.0411,0.1093,9.8429,-0.2259,0.2143,-3.0914,1.2315,-3.9906,-2.9324
10920,0.0105,0.1089,9.8254,-0.1417,0.2267,-3.3958,1.2298,-3.9730,-2.9125
10928,-0.0159,0.1490,9.7877,-0.2132,0.2066,-3.7296,1.2270,-3.9516,-2.8936
10936,0.0277,0.1416,9.7959,-0.1163,0.0381,-4.1341,1.2243,-3.9303,-2.8748
10944,0.0148,0.1195,9.7811,-0.1622,0.0476,-4.5609,1.2173,-3.9134,-2.8547
10952,0.0258,0.0789,9.7813,-0.1181,0.1820,-4.7718,1.2146,-3.8897,-2.8327
10960,0.0104,0.0431,9.7669,-0.1826,0.0812,-5.2000,1.2158,-3.8715,-2.8161
10968,0.0155,0.0157,9.7671,-0.2897,0.0781,-5.3216,1.2150,-3.8533,-2.8005
10976,-0.0400,0.0324,9.7773,-0.2613,0.0618,-5.6271,1.2143,-3.8352,-2.7850
10984,0.0072,0.0329,9.7943,-0.2743,0.0596,-5.7327,1.2145,-3.8201,-2.7637
10992,-0.0042,0.0457,9.7883,-0.3533,0.1508,-6.0282,1.2152,-3.7977,-2.7455
11000,-0.0310,0.0304,9.8129,-0.2235,0.0274,-6.0256,1.2121,-3.7798,-2.7258
11008,-0.0461,-0.0017,9.8105,-0.3154,0.0827,-6.0337,1.2080,-3.7629,-2.7092
11016,-0.0493,-0.0002,9.7902,-0.3100,0.1249,-5.9161,1.2039,-3.7460,-2.6926
11024,-0.0654,0.0043,9.8128,-0.2595,0.2852,-5.8783,1.2012,-3.7205,-2.6761
11032,-0.1369,0.0252,9.8127,-0.3685,0.3959,-5.9835,1.1986,-3.6951,-2.6596
11040,-0.1446,0.0351,9.8295,-0.3154,0.2484,-6.0842,1.1936,-3.6732,-2.6432
11048,-0.1940,0.0463,9.8324,-0.3979,0.2354,-6.4337,1.1886,-3.6513,-2.6269
11056,-0.2724,0.0632,9.8437,-0.3115,0.2149,-6.5680,1.1835,-3.6295,-2.6106
11064,-0.2969,0.0745,9.8516,-0.3089,0.4380,-6.8003,1.1819,-3.6054,-2.5886
11072,-0.3464,0.0446,9.8420,-0.2264,0.5260,-6.8919,1.1803,-3.5814,-2.5667
11080,-0.3725,0.0786,9.8091,-0.2889,0.4581,-6.8861,1.1773,-3.5618,-2.5488
11088,-0.3847,0.0510,9.8016,-0.3833,0.4759,-6.9126,1.1743,-3.5422,-2.5309
11096,-0.3784,0.0848,9.7994,-0.4175,0.5116,-7.0339,1.1722,-3.5227,-2.5145
11104,-0.3468,0.0453,9.7924,-0.3250,0.5617,-7.0059,1.1668,-3.5047,-2.4919
11112,-0.3533,0.0336,9.7898,-0.1058,0.5456,-7.0325,1.1647,-3.4854,-2.4733
11120,-0.2808,0.0044,9.7582,-0.1228,0.6662,-7.0152,1.1598,-3.4671,-2.4552
11128,-0.2835,-0.0152,9.7825,-0.1658,0.7922,-6.7774,1.1549,-3.4488,-2.4372
11136,-0.1717,-0.0069,9.8085,-0.0896,0.7048,-6.4806,1.1510,-3.4330,-2.4168
11144,-0.1119,-0.0300,9.8166,-0.2087,0.7011,-6.4715,1.1447,-3.4158,-2.3999
11152,-0.0555,-0.0126,9.8303,-0.1759,0.9056,-6.2228,1.1408,-3.3900,-2.3806
11160,0.0146,-0.0256,9.8081,-0.0832,0.6131,-5.9663,1.1378,-3.3677,-2.3648
11168,0.0512,-0.0610,9.8076,0.0081,0.6721,-5.6410,1.1349,-3.3454,-2.3491
11176,0.1458,-0.0899,9.8198,-0.0300,0.6566,-5.3352,1.1258,-3.3242,-2.3344
11184,0.2168,-0.0663,9.8264,0.0270,0.6630,-5.0935,1.1166,-3.3031,-2.3197
11192,0.2046,-0.0742,9.8273,-0.1079,0.3865,-4.8891,1.1148,-3.2845,-2.3042
11200,0.2108,-0.0572,9.8086,-0.0929,0.1754,-4.7309,1.1129,-3.2659,-2.2887
11208,0.2519,-0.0213,9.8349,0.0335,0.2029,-4.3930,1.1110,-3.2474,-2.2732
11216,0.2887,-0.0243,9.8118,0.2130,0.1945,-4.2458,1.1048,-3.2271,-2.2569
11224,0.2865,-0.0289,9.8227,0.1820,0.1678,-4.0918,1.0987,-3.2068,-2.2406
11232,0.3350,-0.0130,9.8276,0.1097,0.0596,-3.9018,1.0988,-3.1856,-2.2210
11240,0.3726,-0.0204,9.8234,0.0139,0.0602,-3.8374,1.0989,-3.1645,-2.2015
11248,0.3842,-0.0413,9.8228,0.0743,0.1300,-3.7119,1.0894,-3.1445,-2.1893
11256,0.4225,-0.0597,9.8118,0.0627,-0.0058,-3.5945,1.0827,-3.1240,-2.1704
11264,0.4299,-0.0536,9.8018,0.0249,0.0002,-3.4476,1.0762,-3.1037,-2.1515
11272,0.4620,0.0033,9.8155,0.0475,-0.2126,-3.3631,1.0677,-3.0829,-2.1313
11280,0.4902,-0.0130,9.8148,0.0824,-0.1708,-3.3357,1.0592,-3.0622,-2.1112
11288,0.4761,-0.0309,9.8232,0.0704,-0.1682,-3.2774,1.0599,-3.0396,-2.0983
11296,0.4911,-0.0308,9.8130,0.0590,-0.1337,-3.4324,1.0525,-3.0186,-2.0812
11304,0.4774,0.0022,9.8011,0.0347,-0.1327,-3.4232,1.0484,-2.9986,-2.0641
11312,0.4494,0.0138,9.7994,0.0409,-0.0971,-3.4678,1.0424,-2.9844,-2.0461
11320,0.4383,0.0211,9.8011,0.0121,-0.0417,-3.5425,1.0364,-2.9703,-2.0283
11328,0.4068,0.0090,9.8026,0.1418,-0.0874,-3.6458,1.0305,-2.9500,-2.0085
11336,0.3742,0.0086,9.8135,0.2099,-0.0324,-3.6273,1.0246,-2.9298,-1.9888
11344,0.3711,-0.0369,9.8061,0.1871,-0.0145,-3.5430,1.0182,-2.9101,-1.9706
11352,0.3250,-0.0490,9.7989,0.2185,-0.0801,-3.4197,1.0118,-2.8905,-1.9525
11360,0.3189,-0.0412,9.8043,0.2593,-0.0707,-3.1498,1.0054,-2.8710,-1.9345
11368,0.2691,-0.0355,9.8005,0.2209,0.0768,-2.9103,0.9967,-2.8540,-1.9190
11376,0.2533,-0.0303,9.8002,0.2269,0.0740,-2.7133,0.9880,-2.8370,-1.9035
11384,0.2498,-0.0266,9.8146,0.2007,0.1219,-2.4876,0.9841,-2.8143,-1.8856
11392,0.2099,-0.0350,9.8039,0.1515,-0.0296,-2.1678,0.9803,-2.7917,-1.8678
11400,0.2274,-0.0413,9.8165,0.2219,0.0068,-1.9446,0.9731,-2.7701,-1.8501
11408,0.2274,-0.0834,9.8175,0.1958,-0.0223,-1.6672,0.9717,-2.7534,-1.8291
11416,0.1868,-0.0883,9.7887,0.2776,0.0965,-1.4259,0.9707,-2.7349,-1.8086
11424,0.1951,-0.0881,9.7955,0.3051,0.0741,-1.2059,0.9635,-2.7135,-1.7911
11432,0.1799,-0.0944,9.7843,0.2141,0.0606,-0.9448,0.9564,-2.6922,-1.7737
11440,0.1703,-0.0891,9.7792,0.2363,0.1785,-0.7671,0.9502,-2.6758,-1.7587
11448,0.1301,-0.0706,9.7919,0.2657,0.2138,-0.5705,0.9441,-2.6570,-1.7428
11456,0.0705,-0.0480,9.8007,0.2857,0.2690,-0.3292,0.9370,-2.6374,-1.7328
11464,0.0813,-0.0180,9.8223,0.2568,0.3270,-0.1997,0.9323,-2.6212,-1.7204
11472,0.0578,0.0178,9.8304,0.2533,0.4332,-0.1640,0.9277,-2.6050,-1.7080
11480,0.0602,0.0093,9.8223,0.2925,0.4761,-0.0791,0.9206,-2.5865,-1.6947
11488,0.0333,-0.0044,9.8204,0.3087,0.4771,-0.0459,0.9136,-2.5681,-1.6815
11496,0.0485,-0.0305,9.8288,0.3615,0.4540,0.0258,0.9100,-2.5497,-1.6659
11504,-0.0175,-0.0299,9.8217,0.3853,0.5307,0.1717,0.9064,-2.5315,-1.6504
11512,0.0195,-0.0389,9.8349,0.4588,0.4999,0.4472,0.9028,-2.5132,-1.6349
11520,-0.0050,-0.0166,9.8118,0.5104,0.5132,0.6174,0.9035,-2.4970,-1.6200
11528,-0.0148,-0.0265,9.8237,0.5624,0.4993,0.8441,0.9042,-2.4808,-1.6051
11536,-0.0028,-0.0135,9.8171,0.6041,0.4539,0.9355,0.9006,-2.4651,-1.5922
11544,0.0104,-0.0218,9.8135,0.5533,0.3892,1.0390,0.8942,-2.4495,-1.5793
11552,-0.0164,-0.0098,9.8161,0.4914,0.2767,1.0339,0.8877,-2.4249,-1.5694
11560,-0.0087,-0.0180,9.8189,0.4376,0.4277,1.0477,0.8890,-2.4085,-1.5552
11568,-0.0186,-0.0337,9.8438,0.3701,0.3642,1.2130,0.8912,-2.3908,-1.5401
11576,-0.0276,-0.0050,9.8444,0.3402,0.3061,1.3256,0.8867,-2.3755,-1.5236
11584,-0.0640,0.0036,9.8550,0.3970,0.3385,1.2627,0.8822,-2.3603,-1.5071
11592,-0.0710,0.0110,9.8327,0.2913,0.3348,1.0932,0.8811,-2.3427,-1.4908
11600,-0.0558,0.0076,9.8298,0.2649,0.2247,1.0457,0.8756,-2.3272,-1.4812
11608,-0.0900,0.0141,9.8236,0.2316,0.2020,1.0510,0.8721,-2.3050,-1.4663
11616,-0.1496,0.0392,9.8366,0.1678,0.3137,1.0481,0.8744,-2.2891,-1.4477
11624,-0.1447,0.0299,9.8398,0.1681,0.3111,0.8960,0.8766,-2.2733,-1.4291
11632,-0.2137,0.0448,9.8244,0.1231,0.2766,0.7479,0.8746,-2.2599,-1.4169
11640,-0.2310,0.0487,9.7954,0.2107,0.4437,0.6089,0.8725,-2.2466,-1.4046
11648,-0.2016,0.0463,9.8312,0.0998,0.4194,0.5906,0.8729,-2.2296,-1.3862
11656,-0.2004,0.0496,9.8180,0.0737,0.4229,0.4931,0.8732,-2.2126,-1.3679
11664,-0.2277,0.0357,9.8247,0.0035,0.4502,0.3813,0.8735,-2.1956,-1.3496
11672,-0.1840,0.0327,9.8131,-0.0504,0.5430,0.1570,0.8681,-2.1745,-1.3367
11680,-0.1927,-0.0205,9.7943,-0.1658,0.5571,0.0065,0.8627,-2.1534,-1.3238
11688,-0.1838,-0.0018,9.7750,-0.1643,0.3839,-0.0814,0.8636,-2.1386,-1.3100
11696,-0.1898,0.0152,9.7986,-0.0774,0.4076,-0.1015,0.8630,-2.1253,-1.2962
11704,-0.1370,0.0119,9.7908,0.1149,0.3663,-0.1820,0.8624,-2.1121,-1.2825
11712,-0.1907,0.0066,9.7974,0.0242,0.5614,-0.2803,0.8556,-2.0947,-1.2669
11720,-0.1843,0.0214,9.7860,-0.0092,0.6333,-0.3050,0.8521,-2.0773,-1.2514
11728,-0.1524,0.0234,9.8108,-0.0491,0.9714,-0.3740,0.8530,-2.0604,-1.2412
11736,-0.1364,0.0221,9.8246,0.0780,1.0041,-0.2213,0.8477,-2.0422,-1.2277
11744,-0.1638,0.0336,9.8316,0.0929,1.0220,-0.2832,0.8424,-2.0240,-1.2143
11752,-0.1553,0.0436,9.8293,0.1178,1.0445,-0.3878,0.8380,-2.0117,-1.2013
11760,-0.1527,0.0225,9.7945,0.0216,1.0313,-0.5624,0.8317,-1.9999,-1.1856
11768,-0.1129,-0.0011,9.7829,-0.0570,0.9520,-0.6335,0.8289,-1.9820,-1.1732
11776,-0.0966,0.0372,9.8007,-0.0095,0.9615,-0.7681,0.8260,-1.9641,-1.1609
11784,-0.0899,0.0054,9.7863,0.0412,0.9999,-0.8888,0.8241,-1.9530,-1.1458
11792,-0.1258,0.0317,9.7742,0.0364,1.0074,-1.0148,0.8222,-1.9419,-1.1307
11800,-0.1269,0.0523,9.7605,-0.0429,0.9905,-1.1434,0.8213,-1.9299,-1.1157
11808,-0.1415,0.0573,9.7887,-0.1320,1.0116,-1.3597,0.8203,-1.9180,-1.1007
11816,-0.1725,0.0482,9.8255,-0.2253,0.8319,-1.2839,0.8194,-1.9061,-1.0858
11824,-0.2042,0.0504,9.8101,-0.3224,0.5693,-1.3100,0.8189,-1.8909,-1.0714
11832,-0.2466,0.0615,9.7930,-0.2367,0.4916,-1.3777,0.8185,-1.8758,-1.0571
11840,-0.2375,0.0483,9.8094,-0.2160,0.5266,-1.3464,0.8171,-1.8584,-1.0452
11848,-0.2293,0.0510,9.7992,-0.2229,0.3254,-1.2711,0.8143,-1.8424,-1.0357
11856,-0.2392,0.0779,9.8036,-0.3202,0.4396,-1.2285,0.8114,-1.8265,-1.0263
11864,-0.2300,0.0760,9.7894,-0.2159,0.3622,-1.1584,0.8077,-1.8093,-1.0159
11872,-0.1856,0.0974,9.7756,-0.0601,0.2375,-1.0620,0.8049,-1.7921,-1.0008
11880,-0.1446,0.0817,9.8001,-0.1085,0.2969,-1.0046,0.8011,-1.7774,-0.9906
11888,-0.1315,0.0493,9.7930,-0.0561,0.3431,-0.7549,0.7969,-1.7646,-0.9785
11896,-0.1375,0.0605,9.7830,-0.2620,0.4513,-0.5615,0.7927,-1.7519,-0.9664
11904,-0.0906,0.0510,9.7912,-0.2322,0.6160,-0.2299,0.7923,-1.7326,-0.9548
11912,-0.0403,0.0557,9.7891,-0.1958,0.8429,0.0098,0.7867,-1.7152,-0.9404
11920,-0.0131,0.0891,9.8191,-0.2782,0.5425,0.2551,0.7887,-1.6984,-0.9256
11928,-0.0126,0.0683,9.8034,-0.2664,0.7086,0.3430,0.7855,-1.6836,-0.9113
11936,0.0316,0.0672,9.8047,-0.1138,0.6514,0.6803,0.7823,-1.6688,-0.8970
11944,0.0579,0.0138,9.8286,-0.0398,0.7834,0.6776,0.7791,-1.6541,-0.8828
11952,0.1327,0.0389,9.8398,-0.1718,0.8830,0.4777,0.7783,-1.6385,-0.8782
11960,0.1654,0.0474,9.8618,-0.0339,0.8902,0.3345,0.7775,-1.6229,-0.8737
11968,0.2090,0.0798,9.8625,0.0312,0.9291,0.1523,0.7743,-1.6060,-0.8691
11976,0.2194,0.0398,9.8582,0.0668,1.0569,-0.0220,0.7711,-1.5891,-0.8565
11984,0.2884,0.0355,9.8584,-0.1765,1.0992,-0.3460,0.7680,-1.5723,-0.8439
11992,0.2894,0.0266,9.8576,-0.1664,0.9823,-0.5838,0.7648,-1.5556,-0.8313
12000,0.2980,0.0382,9.8551,-0.1862,0.9371,-0.6966,0.7588,-1.5408,-0.8178
12008,0.3359,0.0076,9.8611,-0.2130,0.7180,-0.8898,0.7528,-1.5261,-0.8044
12016,0.3273,-0.0100,9.8610,-0.2787,0.6711,-1.2131,0.7449,-1.5110,-0.7943
12024,0.3396,0.0214,9.8499,-0.1282,0.6075,-1.5437,0.7399,-1.4926,-0.7800
12032,0.2998,0.0070,9.8536,-0.0910,0.4374,-1.9131,0.7359,-1.4738,-0.7677
12040,0.2691,0.0250,9.8420,-0.0234,0.4001,-2.3438,0.7329,-1.4574,-0.7554
12048,0.2606,0.0526,9.8473,0.0760,0.3965,-2.8089,0.7298,-1.4411,-0.7431
12056,0.3207,0.0772,9.8408,-0.0077,0.3823,-3.1497,0.7239,-1.4244,-0.7338
12064,0.3236,0.0693,9.8517,-0.0104,0.3340,-3.5902,0.7223,-1.4044,-0.7240
12072,0.3558,0.0372,9.8675,0.0297,0.2746,-3.8968,0.7184,-1.3883,-0.7128
12080,0.3226,0.0327,9.8477,-0.0866,0.2124,-4.0673,0.7178,-1.3747,-0.6968
12088,0.2438,0.0268,9.8302,-0.1072,0.1849,-4.3984,0.7172,-1.3611,-0.6810
12096,0.1976,0.0351,9.8116,-0.1268,0.2653,-4.4190,0.7166,-1.3475,-0.6651
12104,0.2245,0.0108,9.8062,-0.1030,0.2729,-4.5827,0.7155,-1.3288,-0.6503
12112,0.2334,-0.0408,9.7927,-0.1548,0.1121,-4.5579,0.7144,-1.3101,-0.6356
12120,0.2364,-0.0092,9.8209,-0.1351,0.0517,-4.5849,0.7071,-1.2924,-0.6209
12128,0.2510,0.0007,9.8151,-0.0522,0.1672,-4.5520,0.6999,-1.2749,-0.6062
12136,0.2619,0.0088,9.8294,-0.1062,-0.0263,-4.7179,0.6926,-1.2573,-0.5916
12144,0.2699,0.0138,9.8296,-0.0193,-0.1740,-4.8018,0.6864,-1.2432,-0.5775
12152,0.3037,-0.0071,9.8475,0.0105,-0.3099,-4.7381,0.6854,-1.2225,-0.5639
12160,0.3182,0.0149,9.8555,-0.1423,-0.2932,-4.7386,0.6796,-1.2042,-0.5504
12168,0.2749,0.0107,9.8191,-0.2084,-0.1892,-4.6189,0.6739,-1.1860,-0.5370
12176,0.2466,0.0270,9.7874,-0.2610,-0.0071,-4.5232,0.6706,-1.1703,-0.5235
12184,0.2416,0.0130,9.7775,-0.3352,-0.0196,-4.4211,0.6677,-1.1541,-0.5121
12192,0.2848,0.0340,9.7703,-0.4543,-0.1410,-4.1500,0.6625,-1.1390,-0.5016
12200,0.2451,0.0148,9.7666,-0.4294,-0.2756,-4.2455,0.6573,-1.1239,-0.4912
12208,0.2598,0.0279,9.8014,-0.3523,-0.4071,-4.1341,0.6511,-1.1079,-0.4822
12216,0.2380,0.0621,9.8166,-0.3853,-0.4181,-3.9983,0.6436,-1.0882,-0.4695
12224,0.2160,0.0575,9.8116,-0.3874,-0.3167,-3.8897,0.6437,-1.0704,-0.4587
12232,0.1778,0.0465,9.8239,-0.4295,-0.2864,-3.9272,0.6409,-1.0509,-0.4498
12240,0.1807,0.0762,9.8219,-0.4777,-0.1560,-3.9418,0.6382,-1.0314,-0.4410
12248,0.1477,0.0553,9.8237,-0.4412,-0.2527,-3.9610,0.6355,-1.0119,-0.4322
12256,0.1493,0.0768,9.7857,-0.4569,-0.1985,-4.0301,0.6370,-0.9954,-0.4215
12264,0.1558,0.0631,9.8028,-0.4986,-0.2960,-3.9548,0.6386,-0.9790,-0.4109
12272,0.1789,0.0356,9.8005,-0.5385,-0.2932,-3.9468,0.6301,-0.9598,-0.3950
12280,0.1749,0.0163,9.8044,-0.5260,-0.2826,-3.8378,0.6217,-0.9406,-0.3792
12288,0.1798,0.0306,9.8056,-0.5700,-0.2644,-3.8376,0.6133,-0.9215,-0.3635
12296,0.1838,0.0313,9.7921,-0.5027,-0.1457,-3.8267,0.6082,-0.9073,-0.3502
12304,0.2034,0.0224,9.7922,-0.4704,-0.2322,-3.8510,0.6027,-0.8912,-0.3365
12312,0.2047,0.0220,9.7977,-0.4129,-0.3309,-3.7115,0.5996,-0.8799,-0.3261
12320,0.1822,0.0290,9.8109,-0.3872,-0.2813,-3.6715,0.5965,-0.8687,-0.3158
12328,0.1910,0.0184,9.8138,-0.3173,-0.2898,-3.6572,0.5910,-0.8552,-0.3032
12336,0.1730,0.0389,9.8013,-0.2771,-0.3833,-3.5583,0.5899,-0.8388,-0.2910
12344,0.1381,0.0502,9.7992,-0.1267,-0.5261,-3.6049,0.5863,-0.8201,-0.2803
12352,0.1310,0.0791,9.8223,-0.1428,-0.5132,-3.7856,0.5890,-0.8058,-0.2654
12360,0.1178,0.0697,9.8076,-0.1876,-0.5810,-3.7956,0.5917,-0.7915,-0.2505
12368,0.0963,0.0503,9.8190,-0.2171,-0.7577,-3.8266,0.5848,-0.7725,-0.2476
12376,0.1174,0.0400,9.8243,-0.3386,-0.7508,-3.8962,0.5789,-0.7565,-0.2371
12384,0.0845,0.0275,9.8186,-0.2761,-0.6961,-3.8268,0.5787,-0.7391,-0.2266
12392,0.0812,0.0298,9.7920,-0.3417,-0.5185,-3.8377,0.5786,-0.7217,-0.2162
12400,0.0627,0.0388,9.7998,-0.2551,-0.4954,-3.6908,0.5784,-0.7045,-0.2058
12408,0.0424,0.0574,9.7974,-0.2817,-0.4919,-3.6011,0.5763,-0.6891,-0.1959
12416,0.0531,0.0414,9.7892,-0.3097,-0.6272,-3.4272,0.5743,-0.6739,-0.1860
12424,0.1033,0.0538,9.7800,-0.2538,-0.5193,-3.4209,0.5741,-0.6596,-0.1757
12432,0.0563,0.0341,9.7694,-0.2698,-0.3708,-3.2576,0.5740,-0.6455,-0.1654
12440,0.0557,-0.0043,9.7721,-0.2983,-0.3994,-3.2161,0.5738,-0.6313,-0.1552
12448,0.0437,0.0020,9.7577,-0.2403,-0.6081,-3.2244,0.5679,-0.6196,-0.1450
12456,0.0939,0.0159,9.7847,-0.1821,-0.7357,-3.0350,0.5645,-0.6042,-0.1300
12464,0.1216,0.0189,9.7796,-0.1532,-0.6444,-2.8753,0.5634,-0.5850,-0.1185
12472,0.1539,0.0334,9.7955,-0.2348,-0.6531,-2.7678,0.5623,-0.5658,-0.1070
12480,0.1914,0.0425,9.7852,-0.2356,-0.8027,-2.6117,0.5579,-0.5501,-0.0941
12488,0.2034,0.0284,9.7850,-0.2710,-0.7937,-2.6012,0.5531,-0.5363,-0.0850
12496,0.2334,0.0279,9.7803,-0.3048,-0.8199,-2.4364,0.5496,-0.5188,-0.0727
12504,0.2232,0.0070,9.7811,-0.3238,-0.7275,-2.3348,0.5424,-0.5014,-0.0604
12512,0.2404,0.0140,9.7881,-0.3553,-0.4712,-2.3790,0.5352,-0.4840,-0.0481
12520,0.2401,0.0204,9.7941,-0.3482,-0.4288,-2.2212,0.5299,-0.4672,-0.0411
12528,0.2616,0.0230,9.8031,-0.3520,-0.4362,-2.0330,0.5228,-0.4485,-0.0337
12536,0.2405,0.0453,9.7912,-0.3262,-0.4220,-1.9677,0.5171,-0.4352,-0.0215
12544,0.2183,0.0451,9.7750,-0.3443,-0.3977,-2.1320,0.5114,-0.4219,-0.0093
12552,0.2546,0.0262,9.7762,-0.2576,-0.3719,-2.1904,0.5057,-0.4086,0.0028
12560,0.2105,0.0118,9.7856,-0.2814,-0.3764,-2.3395,0.5006,-0.3911,0.0167
12568,0.2294,-0.0012,9.7922,-0.3334,-0.3088,-2.3995,0.4954,-0.3737,0.0306
12576,0.2619,-0.0166,9.8027,-0.2845,-0.2948,-2.3609,0.4898,-0.3554,0.0378
12584,0.3060,-0.0292,9.8260,-0.3284,-0.3588,-2.3239,0.4842,-0.3372,0.0450
12592,0.2820,-0.0520,9.8128,-0.2638,-0.2573,-2.3312,0.4786,-0.3190,0.0522
12600,0.2900,-0.0261,9.7995,-0.3006,-0.2509,-2.2289,0.4730,-0.3024,0.0607
12608,0.2558,-0.0510,9.7894,-0.2824,-0.3301,-2.0751,0.4689,-0.2863,0.0721
12616,0.2548,-0.0567,9.7883,-0.1878,-0.2165,-1.9519,0.4639,-0.2693,0.0801
12624,0.2289,-0.0504,9.7842,-0.1986,-0.2359,-1.9382,0.4588,-0.2523,0.0881
12632,0.2328,-0.0712,9.8019,-0.2889,-0.1557,-1.8691,0.4543,-0.2407,0.0975
12640,0.2427,-0.0531,9.8161,-0.2046,-0.0125,-1.7123,0.4497,-0.2253,0.1083
12648,0.2349,-0.0540,9.8257,-0.2094,-0.0674,-1.6744,0.4500,-0.2099,0.1190
12656,0.2127,-0.0571,9.8049,-0.1446,-0.1040,-1.5341,0.4497,-0.1904,0.1278
12664,0.2108,-0.0595,9.8088,-0.0746,-0.0510,-1.4533,0.4495,-0.1709,0.1366
12672,0.2329,-0.0949,9.8077,-0.0264,-0.1256,-1.3387,0.4440,-0.1549,0.1416
12680,0.2328,-0.0986,9.8059,-0.0842,-0.1863,-1.2798,0.4372,-0.1389,0.1484
12688,0.2026,-0.0857,9.7973,0.0178,-0.2763,-1.1061,0.4331,-0.1258,0.1561
12696,0.2140,-0.0489,9.7978,-0.0020,-0.2904,-0.8734,0.4292,-0.1128,0.1639
12704,0.1961,-0.0361,9.8010,0.0564,-0.1625,-0.6215,0.4252,-0.0999,0.1716
12712,0.1699,-0.0231,9.8030,0.0216,-0.1923,-0.4233,0.4207,-0.0841,0.1807
12720,0.1543,-0.0273,9.8157,0.0149,-0.2021,-0.2204,0.4163,-0.0685,0.1897
12728,0.1549,-0.0075,9.8099,-0.0154,-0.1821,-0.1144,0.4133,-0.0491,0.1964
12736,0.1380,-0.0214,9.8147,-0.0711,-0.1870,0.0803,0.4104,-0.0298,0.2031
12744,0.1333,0.0006,9.8195,-0.0763,-0.1383,0.1519,0.4074,-0.0105,0.2097
12752,0.1098,0.0056,9.8210,-0.1107,-0.1664,0.1989,0.4030,0.0063,0.2186
12760,0.1087,0.0045,9.8293,-0.0822,-0.0787,0.2866,0.4024,0.0177,0.2290
12768,0.1194,-0.0060,9.8322,-0.0629,-0.0747,0.2638,0.4028,0.0329,0.2394
12776,0.0782,-0.0073,9.8249,-0.0552,-0.0950,0.4846,0.4032,0.0481,0.2497
12784,0.0860,-0.0039,9.8268,-0.1278,-0.0903,0.5678,0.4031,0.0665,0.2533
12792,0.0766,-0.0127,9.8090,-0.1732,-0.1659,0.7407,0.4002,0.0806,0.2635
12800,0.0599,-0.0061,9.8048,-0.1527,-0.0995,0.7033,0.3973,0.0979,0.2700
12808,0.0813,-0.0069,9.7968,-0.1357,-0.0067,0.7582,0.3920,0.1142,0.2787
12816,0.0969,-0.0168,9.7883,-0.1088,-0.0459,0.7308,0.3867,0.1304,0.2875
12824,0.1207,-0.0097,9.8138,-0.1870,0.0179,0.6565,0.3866,0.1432,0.2971
12832,0.1285,-0.0152,9.8209,-0.2219,0.0416,0.5322,0.3842,0.1574,0.3030
12840,0.1488,-0.0116,9.8128,-0.2179,0.0003,0.5360,0.3814,0.1768,0.3107
12848,0.1448,-0.0110,9.8228,-0.1980,-0.0419,0.4622,0.3785,0.1960,0.3184
12856,0.1189,-0.0072,9.8113,-0.1550,-0.0262,0.4664,0.3756,0.2152,0.3260
12864,0.1028,-0.0312,9.7950,-0.1513,-0.0219,0.4570,0.3737,0.2319,0.3303
12872,0.1018,-0.0078,9.7752,-0.1183,0.0862,0.4054,0.3718,0.2486,0.3346
12880,0.1151,0.0116,9.7605,-0.2175,0.0616,0.3401,0.3714,0.2666,0.3422
12888,0.1066,-0.0128,9.7567,-0.1444,0.1127,0.2749,0.3709,0.2845,0.3498
12896,0.1239,-0.0052,9.7525,-0.1704,0.0389,0.1513,0.3704,0.3024,0.3574
12904,0.1346,-0.0034,9.7654,-0.1526,0.0670,0.0944,0.3666,0.3168,0.3644
12912,0.1325,-0.0063,9.7831,-0.1223,0.0566,0.0666,0.3619,0.3326,0.3724
12920,0.1519,0.0033,9.7799,-0.1146,0.0573,-0.0399,0.3624,0.3478,0.3847
12928,0.1782,0.0089,9.7762,-0.0300,0.0232,-0.0218,0.3630,0.3630,0.3968
12936,0.1769,0.0116,9.7668,-0.0717,0.0014,-0.1645,0.3640,0.3772,0.4023
12944,0.1817,0.0119,9.7752,-0.0262,0.0365,-0.2396,0.3616,0.3941,0.4102
12952,0.1741,0.0089,9.7824,-0.0574,0.0354,-0.4181,0.3617,0.4058,0.4214
12960,0.1923,0.0148,9.7893,-0.0286,0.0316,-0.3781,0.3579,0.4212,0.4282
12968,0.1779,0.0102,9.7933,-0.0704,0.0627,-0.3665,0.3541,0.4365,0.4350
12976,0.1652,0.0041,9.7869,-0.0330,-0.0035,-0.2728,0.3499,0.4513,0.4409
12984,0.1706,0.0051,9.7957,-0.0372,-0.0616,-0.3671,0.3472,0.4622,0.4481
12992,0.1673,-0.0028,9.7968,-0.0626,-0.1757,-0.3960,0.3444,0.4730,0.4577
13000,0.1748,-0.0021,9.7864,-0.0656,-0.1995,-0.4423,0.3416,0.4838,0.4673
13008,0.1798,-0.0024,9.7843,-0.0711,-0.1450,-0.4733,0.3389,0.4946,0.4769
13016,0.1783,-0.0172,9.7801,-0.1323,-0.1568,-0.6069,0.3409,0.5091,0.4816
13024,0.1597,-0.0102,9.7923,-0.1722,-0.1228,-0.6280,0.3429,0.5235,0.4864
13032,0.1520,-0.0188,9.7874,-0.1330,-0.1250,-0.6375,0.3364,0.5355,0.4958
13040,0.1354,-0.0248,9.7883,-0.1276,-0.1004,-0.7399,0.3298,0.5474,0.5053
13048,0.1482,-0.0257,9.7970,0.0030,-0.1568,-0.6805,0.3233,0.5593,0.5147
13056,0.1502,-0.0338,9.7898,0.0372,-0.2188,-0.7863,0.3211,0.5726,0.5236
13064,0.1520,-0.0361,9.7883,0.0805,-0.0967,-0.7036,0.3199,0.5919,0.5325
13072,0.1437,-0.0391,9.7892,0.0847,-0.0867,-0.7524,0.3196,0.6060,0.5380
13080,0.1489,-0.0340,9.7932,0.1526,-0.1838,-0.7245,0.3159,0.6204,0.5478
13088,0.1513,-0.0349,9.7813,0.1536,-0.1192,-0.7644,0.3123,0.6348,0.5576
13096,0.1516,-0.0380,9.7815,0.1785,-0.0949,-0.7760,0.3106,0.6487,0.5654
13104,0.1524,-0.0427,9.7730,0.2370,-0.0849,-0.8110,0.3070,0.6605,0.5760
13112,0.1417,-0.0377,9.7736,0.1410,-0.1260,-0.8178,0.3025,0.6761,0.5881
13120,0.1248,-0.0360,9.7800,0.1585,-0.0854,-0.8750,0.2989,0.6902,0.5929
13128,0.1295,-0.0281,9.7853,0.1565,-0.0998,-0.8257,0.2954,0.7043,0.5978
13136,0.1155,-0.0264,9.7765,0.1253,-0.0443,-0.7732,0.2928,0.7177,0.6069
13144,0.1047,-0.0216,9.7844,0.1941,-0.0605,-0.7417,0.2926,0.7274,0.6184
13152,0.0972,-0.0210,9.7939,0.1026,0.0626,-0.7302,0.2923,0.7369,0.6298
13160,0.0867,-0.0181,9.7906,0.1378,0.1403,-0.6739,0.2921,0.7464,0.6412
13168,0.0828,-0.0219,9.7936,0.1394,0.1107,-0.6334,0.2929,0.7621,0.6502
13176,0.0682,-0.0231,9.7967,0.1543,0.1623,-0.6240,0.2936,0.7776,0.6591
13184,0.0624,-0.0191,9.7987,0.1579,0.1397,-0.5750,0.2958,0.7893,0.6680
13192,0.0703,-0.0096,9.8063,0.1506,0.1128,-0.5441,0.2979,0.8009,0.6769
13200,0.0697,-0.0046,9.8073,0.0957,0.1030,-0.4880,0.3001,0.8125,0.6858
13208,0.0691,-0.0197,9.8046,0.0565,0.1523,-0.5916,0.2965,0.8221,0.6974
13216,0.0586,-0.0142,9.8071,0.0456,0.1434,-0.5573,0.2968,0.8369,0.7067
13224,0.0596,-0.0184,9.8035,-0.0047,0.0870,-0.6793,0.2951,0.8459,0.7117
13232,0.0573,-0.0181,9.8071,0.0325,-0.0230,-0.6785,0.2949,0.8610,0.7166
13240,0.0520,-0.0105,9.8080,0.0734,0.0532,-0.6965,0.2947,0.8761,0.7215
13248,0.0632,-0.0132,9.8011,0.0832,0.1260,-0.7590,0.2930,0.8887,0.7326
13256,0.0419,-0.0138,9.8013,0.0285,0.1530,-0.7681,0.2914,0.8961,0.7422
13264,0.0335,-0.0143,9.7955,0.0322,0.0881,-0.7501,0.2898,0.9086,0.7494
13272,0.0268,-0.0158,9.7966,0.1425,0.0847,-0.7889,0.2881,0.9220,0.7590
13280,0.0245,-0.0088,9.7908,0.1652,0.1588,-0.6741,0.2865,0.9353,0.7686
13288,0.0323,-0.0071,9.7905,0.1496,0.0804,-0.5882,0.2844,0.9467,0.7776
13296,0.0362,-0.0083,9.7867,0.1001,0.1894,-0.5141,0.2828,0.9590,0.7885
13304,0.0357,-0.0112,9.8000,0.1434,0.1682,-0.5019,0.2812,0.9712,0.7994
13312,0.0279,-0.0261,9.8035,0.1821,0.0947,-0.5089,0.2767,0.9815,0.8092
13320,0.0286,-0.0305,9.8020,0.1631,0.0750,-0.5103,0.2723,0.9917,0.8191
13328,0.0270,-0.0368,9.7948,0.1236,-0.0478,-0.5063,0.2679,1.0018,0.8289
13336,0.0314,-0.0320,9.7937,0.1605,-0.0612,-0.5104,0.2635,1.0119,0.8354
13344,0.0263,-0.0258,9.7868,0.1211,-0.0180,-0.5437,0.2591,1.0220,0.8418
13352,0.0308,-0.0202,9.7951,0.1928,-0.0274,-0.4956,0.2556,1.0320,0.8482
13360,0.0372,-0.0147,9.7931,0.1974,0.0063,-0.4949,0.2522,1.0419,0.8560
13368,0.0343,-0.0202,9.7981,0.1751,0.0251,-0.5368,0.2512,1.0604,0.8648
13376,0.0366,-0.0242,9.7894,0.1457,0.0592,-0.6117,0.2516,1.0726,0.8711
13384,0.0456,-0.0188,9.7989,0.1470,-0.0256,-0.6245,0.2482,1.0809,0.8775
13392,0.0533,-0.0202,9.8024,0.0975,-0.0106,-0.5782,0.2448,1.0891,0.8838
13400,0.0502,-0.0265,9.8002,0.1063,-0.0630,-0.5712,0.2414,1.1035,0.8900
13408,0.0538,-0.0323,9.8063,0.0799,-0.1158,-0.5912,0.2375,1.1136,0.9006
13416,0.0502,-0.0329,9.8142,0.0627,-0.1636,-0.5489,0.2342,1.1241,0.9082
13424,0.0383,-0.0344,9.8176,0.0463,-0.1666,-0.5832,0.2308,1.1373,0.9159
13432,0.0376,-0.0348,9.8203,0.0066,-0.0922,-0.5334,0.2275,1.1505,0.9235
13440,0.0410,-0.0288,9.8263,-0.0100,-0.0023,-0.3710,0.2227,1.1603,0.9315
13448,0.0373,-0.0211,9.8122,-0.0313,0.0489,-0.3651,0.2161,1.1734,0.9367
13456,0.0307,-0.0141,9.8186,-0.0249,0.1140,-0.3354,0.2095,1.1864,0.9418
13464,0.0202,0.0172,9.8253,-0.0322,0.0775,-0.3150,0.2062,1.1956,0.9479
13472,-0.0025,0.1253,9.8359,0.0195,0.0719,-0.3009,0.2029,1.2047,0.9540
13480,0.0034,0.1088,9.8364,-0.0297,0.1786,-0.3513,0.1997,1.2137,0.9601
13488,0.0151,0.0934,9.8300,-0.0474,0.1526,-0.2929,0.1978,1.2237,0.9708
13496,0.0106,0.0990,9.8342,-0.0003,0.1437,-0.3091,0.1960,1.2335,0.9816
13504,-0.0084,0.1356,9.8275,-0.0193,0.1246,-0.3352,0.1961,1.2443,0.9871
13512,-0.0065,0.1226,9.8101,-0.1202,0.1570,-0.3655,0.1962,1.2551,0.9925
13520,-0.0167,0.1064,9.8199,-0.1793,0.0626,-0.4798,0.1963,1.2658,0.9980
13528,-0.0126,0.1058,9.8164,-0.2011,-0.0197,-0.5544,0.1950,1.2764,1.0044
13536,-0.0154,0.1020,9.8192,-0.2433,0.0377,-0.5991,0.1932,1.2850,1.0093
13544,-0.0069,0.0950,9.8217,-0.1984,0.1245,-0.7459,0.1919,1.2965,1.0180
13552,-0.0061,0.0864,9.8281,-0.2247,0.0902,-0.8462,0.1905,1.3079,1.0267
13560,-0.0081,0.0713,9.7938,-0.2953,0.1668,-0.9689,0.1868,1.3160,1.0344
13568,0.0065,0.0567,9.8015,-0.2880,0.1839,-1.1501,0.1813,1.3254,1.0393
13576,0.0157,0.0499,9.7929,-0.2571,0.1737,-1.3208,0.1771,1.3348,1.0484
13584,0.0221,0.0201,9.8271,-0.2409,0.1879,-1.5053,0.1730,1.3441,1.0575
13592,0.0325,0.0268,9.8357,-0.2654,0.2202,-1.6604,0.1708,1.3567,1.0636
13600,0.0377,0.0465,9.8230,-0.1901,0.3337,-1.7954,0.1653,1.3673,1.0717
13608,0.0166,0.0539,9.8315,-0.2168,0.2210,-1.7379,0.1598,1.3779,1.0798
13616,0.0006,0.0879,9.8137,-0.1970,0.2144,-1.7868,0.1567,1.3860,1.0868
13624,0.0139,0.1246,9.8154,-0.1701,0.2695,-1.7323,0.1535,1.3941,1.0939
13632,0.0241,0.1140,9.8228,-0.2163,0.1996,-1.7468,0.1505,1.4022,1.1009
13640,-0.0067,0.1122,9.8232,-0.2446,0.2233,-1.7074,0.1474,1.4150,1.1098
13648,-0.0159,0.1216,9.7989,-0.2289,0.2167,-1.6030,0.1443,1.4277,1.1187
13656,-0.0097,0.1068,9.7838,-0.2246,0.1704,-1.4552,0.1474,1.4394,1.1232
13664,-0.0172,0.0861,9.7742,-0.2791,0.0861,-1.3112,0.1505,1.4510,1.1278
13672,0.0037,0.1471,9.7564,-0.2192,-0.0265,-1.2188,0.1536,1.4626,1.1323
13680,0.0167,0.1167,9.7644,-0.2367,-0.0942,-1.1758,0.1491,1.4747,1.1397
13688,0.0135,0.1711,9.7630,-0.2160,-0.0869,-1.1080,0.1469,1.4842,1.1423
13696,0.0256,0.1921,9.7695,-0.1616,-0.0373,-1.0352,0.1472,1.4938,1.1482
13704,0.0334,0.2271,9.7649,-0.2055,0.0768,-0.8216,0.1474,1.5033,1.1541
13712,0.0304,0.2314,9.7781,-0.2129,0.0793,-0.6546,0.1439,1.5103,1.1624
13720,0.0167,0.2713,9.7617,-0.2146,0.1216,-0.7349,0.1446,1.5179,1.1711
13728,-0.0175,0.3384,9.7652,-0.3096,0.0848,-0.6864,0.1453,1.5315,1.1797
13736,-0.0266,0.3590,9.7687,-0.3364,0.0709,-0.6507,0.1442,1.5384,1.1846
13744,-0.0294,0.3922,9.7733,-0.3247,-0.0864,-0.5712,0.1430,1.5453,1.1894
13752,-0.0014,0.4131,9.7611,-0.2842,-0.0208,-0.7298,0.1371,1.5508,1.1952
13760,-0.0083,0.3369,9.7586,-0.2054,0.0766,-0.9989,0.1355,1.5566,1.1995
13768,-0.0083,0.3467,9.7637,-0.2608,0.1271,-1.2455,0.1338,1.5649,1.2038
13776,0.0009,0.3123,9.7879,-0.2071,0.0820,-1.2600,0.1322,1.5730,1.2081
13784,0.0051,0.3049,9.7980,-0.2197,-0.0171,-1.2925,0.1306,1.5812,1.2124
13792,0.0189,0.2562,9.7902,-0.2745,-0.0532,-1.3289,0.1300,1.5907,1.2152
13800,0.0396,0.1895,9.8082,-0.3215,0.1736,-1.3904,0.1293,1.6002,1.2181
13808,0.0410,0.2128,9.7927,-0.1584,0.0785,-1.4492,0.1258,1.6139,1.2228
13816,0.0555,0.2632,9.7727,-0.1919,0.1022,-1.4388,0.1224,1.6275,1.2275
13824,0.0586,0.2290,9.7527,-0.1971,0.1649,-1.6502,0.1189,1.6411,1.2322
13832,0.0605,0.3315,9.7684,-0.3142,-0.0018,-1.7030,0.1169,1.6499,1.2335
13840,0.0316,0.3304,9.7826,-0.4555,0.0761,-1.8041,0.1162,1.6638,1.2339
13848,0.0120,0.4087,9.7827,-0.3986,0.0306,-1.9035,0.1180,1.6754,1.2405
13856,0.0206,0.3816,9.8010,-0.3628,-0.0609,-2.2306,0.1198,1.6868,1.2470
13864,0.0174,0.4341,9.8285,-0.4087,-0.1565,-2.1166,0.1192,1.6959,1.2545
13872,0.0291,0.4647,9.8356,-0.2365,-0.2558,-2.2424,0.1171,1.7078,1.2615
13880,0.0179,0.3973,9.8352,-0.3651,-0.3508,-2.3066,0.1141,1.7153,1.2665
13888,0.0091,0.3020,9.8434,-0.2829,-0.3750,-2.4213,0.1135,1.7257,1.2716
13896,0.0138,0.3056,9.8350,-0.3482,-0.3581,-2.5551,0.1130,1.7360,1.2766
13904,0.0277,0.3011,9.8328,-0.3173,-0.2059,-2.7710,0.1095,1.7443,1.2845
13912,0.0093,0.2947,9.8336,-0.3411,-0.1271,-2.8921,0.1099,1.7512,1.2856
13920,0.0223,0.2502,9.8416,-0.5265,-0.1024,-3.0719,0.1083,1.7614,1.2897
13928,0.0376,0.2031,9.8538,-0.6879,-0.0841,-3.1585,0.1068,1.7715,1.2937
13936,0.0397,0.2854,9.8398,-0.6128,-0.0213,-3.0626,0.1053,1.7816,1.2977
13944,0.0643,0.2878,9.8436,-0.5970,0.0255,-3.1017,0.1014,1.7888,1.2993
13952,0.0497,0.3155,9.8502,-0.5179,0.1955,-3.1736,0.0975,1.7960,1.3009
13960,0.0493,0.3483,9.8274,-0.7036,0.3448,-3.0478,0.0979,1.8050,1.3077
13968,0.0488,0.3370,9.8241,-0.7185,0.4368,-2.8982,0.0983,1.8140,1.3145
13976,0.0476,0.3390,9.8280,-0.6555,0.2476,-2.9524,0.0987,1.8230,1.3213
13984,0.0295,0.3058,9.8183,-0.5605,0.0852,-3.0309,0.0996,1.8328,1.3229
13992,0.0515,0.2835,9.8214,-0.7390,0.2100,-3.0926,0.1000,1.8455,1.3320
14000,0.0427,0.3102,9.8105,-0.7684,0.2279,-3.0317,0.1028,1.8519,1.3340
14008,0.0461,0.2789,9.7965,-0.5271,0.2425,-3.0587,0.1055,1.8584,1.3359
14016,0.0719,0.3347,9.7843,-0.6324,0.4350,-3.0632,0.1069,1.8662,1.3379
14024,0.0889,0.3252,9.7902,-0.6771,0.4698,-2.7876,0.1053,1.8730,1.3394
14032,0.1089,0.2568,9.7868,-0.6265,0.3911,-2.5426,0.1062,1.8874,1.3433
14040,0.0923,0.1813,9.8216,-0.6928,0.5638,-2.4817,0.1089,1.8974,1.3499
14048,0.0787,0.2565,9.8125,-0.7749,0.3770,-2.4475,0.1117,1.9074,1.3566
14056,0.0996,0.1938,9.8033,-0.8133,0.1556,-2.4601,0.1111,1.9169,1.3580
14064,0.0972,0.2345,9.8242,-0.7888,0.1546,-2.2828,0.1114,1.9278,1.3609
14072,0.1022,0.2017,9.8290,-0.6240,-0.0276,-2.2279,0.1147,1.9381,1.3623
14080,0.0781,0.1524,9.8552,-0.7944,0.0354,-1.8661,0.1179,1.9484,1.3637
14088,0.0931,0.1014,9.8360,-0.6426,0.1330,-1.6748,0.1210,1.9587,1.3651
14096,0.0485,0.1664,9.8251,-0.6442,0.0717,-1.6492,0.1256,1.9685,1.3717
14104,0.0495,0.1487,9.7742,-0.7817,-0.1496,-1.4460,0.1302,1.9782,1.3783
14112,0.0440,0.1723,9.7788,-0.7106,-0.1026,-1.3984,0.1319,1.9907,1.3806
14120,0.0241,0.2015,9.7601,-0.7785,-0.0763,-1.2409,0.1337,2.0032,1.3829
14128,0.0069,0.2273,9.7313,-0.8355,-0.1498,-1.5462,0.1354,2.0156,1.3852
14136,-0.0100,0.2471,9.7267,-1.0473,0.1265,-1.4036,0.1390,2.0275,1.3870
14144,0.0162,0.2491,9.6957,-0.9325,0.1375,-1.3578,0.1402,2.0379,1.3898
14152,0.0171,0.2235,9.7122,-0.8467,0.0840,-1.3727,0.1414,2.0473,1.3892
14160,0.0138,0.1867,9.7094,-1.0021,0.0861,-1.3816,0.1426,2.0567,1.3886
14168,0.0027,0.2067,9.7146,-0.8573,0.1575,-1.3982,0.1486,2.0623,1.3894
14176,0.0031,0.1861,9.7166,-0.8415,-0.0169,-1.1607,0.1517,2.0745,1.3917
14184,-0.0167,0.2594,9.7403,-0.9277,-0.2477,-1.3629,0.1609,2.0814,1.3944
14192,0.0152,0.2657,9.7312,-1.0101,-0.2764,-1.5269,0.1673,2.0911,1.3957
14200,0.0134,0.2718,9.7530,-0.8996,-0.1411,-1.9344,0.1736,2.1008,1.3970
14208,0.0214,0.1999,9.7723,-0.8286,0.0175,-1.9001,0.1795,2.1076,1.4012
14216,0.0483,0.1362,9.7811,-0.8807,-0.0441,-2.1366,0.1834,2.1172,1.4010
14224,0.0543,0.0672,9.7636,-1.0532,-0.2150,-2.2855,0.1840,2.1258,1.3966
14232,0.0425,0.0489,9.7755,-1.0635,-0.3491,-2.1265,0.1847,2.1344,1.3922
14240,0.0532,0.1007,9.7699,-0.7960,-0.1414,-2.2118,0.1853,2.1429,1.3878
14248,0.0169,0.1398,9.7142,-0.8229,-0.2387,-2.1227,0.1859,2.1462,1.3892
14256,0.0309,0.1538,9.7354,-0.3393,-0.1451,-2.2908,0.1865,2.1495,1.3905
14264,0.0250,0.2215,9.7062,-0.3755,0.0991,-2.6409,0.1908,2.1571,1.3899
14272,0.0337,0.1904,9.7277,-0.2367,-0.2728,-2.4290,0.1952,2.1646,1.3893
14280,0.0498,0.1586,9.7344,-0.3041,-0.4177,-2.3544,0.1996,2.1720,1.3887
14288,0.0580,0.1148,9.7545,-0.2991,-0.2843,-1.9604,0.2077,2.1818,1.3882
14296,0.0403,0.1029,9.7787,-0.1424,-0.2980,-1.6957,0.2135,2.1954,1.3866
14304,0.0408,0.1076,9.7573,0.1168,-0.4178,-1.1758,0.2235,2.2023,1.3865
14312,0.0311,0.1543,9.7611,0.0260,-0.3937,-0.8200,0.2334,2.2091,1.3864
14320,0.0762,0.1815,9.7837,0.0699,-0.3147,-1.0744,0.2372,2.2173,1.3863
14328,0.0700,0.2147,9.8015,0.1171,-0.2925,-1.1417,0.2433,2.2241,1.3853
14336,0.0644,0.2320,9.8125,-0.0457,-0.2659,-0.7048,0.2466,2.2351,1.3814
14344,0.0671,0.2350,9.7560,0.0253,-0.0137,-0.7109,0.2532,2.2446,1.3808
14352,0.0928,0.2281,9.7691,-0.1255,-0.1327,-0.3941,0.2597,2.2541,1.3803
14360,0.0796,0.2163,9.7609,-0.0164,-0.3664,-0.1685,0.2610,2.2593,1.3792
14368,0.0881,0.2545,9.7972,0.0480,-0.2832,0.0099,0.2685,2.2697,1.3749
14376,0.0576,0.2571,9.7995,0.0882,-0.0143,0.1912,0.2722,2.2763,1.3739
14384,0.0432,0.2116,9.7734,0.1773,-0.2319,0.2498,0.2758,2.2828,1.3729
14392,0.0716,0.1263,9.7598,0.2999,-0.2799,0.4206,0.2794,2.2893,1.3719
14400,0.0609,0.0924,9.7625,0.2624,-0.3739,-0.0081,0.2873,2.2953,1.3704
14408,0.0584,0.0699,9.7531,-0.0321,0.0563,-0.1327,0.2952,2.3012,1.3689
14416,0.0662,0.0413,9.7696,0.0837,-0.1057,0.0708,0.3016,2.3105,1.3660
14424,0.0865,-0.0314,9.7714,-0.0270,-0.1459,0.2468,0.3080,2.3197,1.3632
14432,0.0753,0.0257,9.7735,-0.0289,-0.1310,0.2044,0.3144,2.3288,1.3603
14440,0.0496,0.0077,9.7644,0.2894,-0.1941,0.3718,0.3217,2.3365,1.3569
14448,0.0460,-0.0864,9.7767,0.2790,0.0682,0.1879,0.3304,2.3447,1.3565
14456,0.0327,-0.1329,9.8010,0.3625,0.1163,0.4734,0.3362,2.3571,1.3522
14464,0.0343,-0.0852,9.7902,0.3276,0.0664,0.1304,0.3463,2.3604,1.3437
14472,0.0317,-0.0006,9.7550,0.1369,-0.0507,-0.0963,0.3564,2.3637,1.3352
14480,0.0516,0.0067,9.7372,0.1679,0.0667,-0.3770,0.3669,2.3699,1.3352
14488,0.0510,0.0269,9.7521,-0.0184,0.2642,-0.5948,0.3825,2.3817,1.3324
14496,0.0586,0.0271,9.7801,-0.2393,0.2372,-0.4644,0.3943,2.3915,1.3292
14504,0.0582,0.0572,9.7918,0.2775,0.3366,-0.5851,0.4004,2.3947,1.3259
14512,0.0783,0.0472,9.8156,0.4276,0.3064,-0.4764,0.4064,2.3978,1.3246
14520,0.0902,0.0618,9.8417,0.4486,0.1788,-0.7566,0.4171,2.4067,1.3233
14528,0.0713,0.1324,9.8298,0.1913,0.4301,-0.7871,0.4344,2.4188,1.3234
14536,0.0483,0.1234,9.8345,0.2252,0.2891,-0.9043,0.4516,2.4309,1.3235
14544,0.0389,0.1599,9.7968,0.0524,0.4076,-0.6911,0.4687,2.4429,1.3236
14552,0.0239,0.2294,9.7500,-0.0223,0.1423,-0.6791,0.4867,2.4501,1.3213
14560,0.0382,0.2498,9.7855,-0.2830,0.0592,-0.9344,0.5046,2.4573,1.3190
14568,0.0698,0.1368,9.8532,-0.7803,-0.0762,-0.9811,0.5220,2.4650,1.3130
14576,0.0861,0.1852,9.7933,-0.5385,0.2049,-0.7965,0.5392,2.4726,1.3069
14584,0.0686,0.2905,9.7796,-0.5260,0.1245,-1.0573,0.5564,2.4802,1.3009
14592,0.0781,0.3211,9.7749,-0.5033,0.3675,-0.9360,0.5687,2.4963,1.2949
14600,0.0590,0.3170,9.7630,-0.4443,0.5439,-1.3667,0.5805,2.5056,1.2965
14608,0.0431,0.2239,9.7927,-0.7426,0.3953,-1.6692,0.5942,2.5130,1.2858
14616,0.0232,0.2937,9.8028,-0.5585,0.4158,-1.6092,0.6058,2.5185,1.2817
14624,0.0367,0.2274,9.8109,-0.5611,0.3875,-1.6398,0.6174,2.5239,1.2777
14632,0.0575,0.1716,9.8092,-0.4649,-0.0743,-1.5224,0.6309,2.5321,1.2704
14640,0.0559,0.1251,9.7608,-0.3942,-0.3346,-1.2448,0.6466,2.5379,1.2654
14648,0.0662,0.1068,9.7379,-0.3640,-0.4235,-1.3153,0.6561,2.5513,1.2595
14656,0.0633,0.0187,9.7459,-0.5324,-0.3645,-1.0601,0.6669,2.5608,1.2546
14664,0.0633,0.1043,9.7194,-0.3042,-0.2120,-0.7733,0.6777,2.5702,1.2497
14672,0.0780,0.0598,9.7314,-0.4272,-0.0930,-0.6645,0.6937,2.5777,1.2420
14680,0.0753,0.0048,9.7486,-0.1556,-0.1497,-0.6830,0.7090,2.5823,1.2371
14688,0.0269,-0.0184,9.7802,-0.0051,-0.2014,-1.0768,0.7244,2.5868,1.2323
14696,0.0090,-0.0678,9.7887,-0.2079,-0.1681,-1.1120,0.7377,2.5942,1.2269
14704,0.0156,-0.0618,9.8014,-0.2765,0.0371,-1.2203,0.7510,2.6015,1.2217
14712,0.0325,-0.0282,9.7619,-0.0674,-0.1614,-1.3586,0.7642,2.6088,1.2164
14720,0.0442,-0.0324,9.7685,-0.1902,-0.0072,-1.4988,0.7802,2.6132,1.2116
14728,0.0820,-0.0581,9.7840,-0.3075,0.1270,-1.5075,0.7961,2.6175,1.2068
14736,0.0981,-0.0835,9.8136,0.0709,0.2046,-1.4252,0.8119,2.6218,1.2021
14744,0.0552,-0.0961,9.8103,-0.0472,0.2308,-2.0612,0.8343,2.6280,1.1945
14752,0.0378,-0.1636,9.8086,-0.2722,0.3785,-2.0907,0.8480,2.6388,1.1869
14760,0.0148,-0.1558,9.7907,-0.1433,0.3998,-2.2922,0.8673,2.6440,1.1756
14768,0.0027,-0.1255,9.7969,0.1613,0.3668,-2.1542,0.8856,2.6500,1.1638
14776,0.0253,-0.1023,9.8225,0.1352,0.5565,-2.2463,0.9037,2.6560,1.1521
14784,0.0299,-0.0561,9.7509,-0.0097,0.7273,-2.1744,0.9189,2.6610,1.1433
14792,0.0687,0.0421,9.7790,0.0197,0.9733,-2.3429,0.9368,2.6641,1.1316
14800,0.0532,0.0421,9.8405,0.0745,0.8753,-2.2881,0.9546,2.6662,1.1200
14808,0.0420,0.0454,9.8469,-0.2038,0.9601,-2.6570,0.9723,2.6720,1.1164
14816,0.0518,-0.0997,9.8586,0.0741,0.9613,-2.6924,0.9899,2.6779,1.1129
14824,0.0780,-0.0297,9.8433,0.0945,1.2291,-2.5876,1.0069,2.6818,1.1042
14832,0.0658,0.0405,9.8326,0.1727,1.0291,-2.3221,1.0266,2.6875,1.0927
14840,0.0674,0.0830,9.8088,0.5274,1.1980,-2.2868,1.0463,2.6932,1.0812
14848,0.0534,0.0591,9.8264,0.4160,1.0207,-2.2718,1.0606,2.7003,1.0725
14856,0.0727,0.1031,9.8433,0.3975,1.0006,-2.3747,1.0748,2.7074,1.0639
14864,0.0983,-0.0921,9.8440,0.7984,1.2320,-2.1078,1.0889,2.7144,1.0554
14872,0.0877,-0.0574,9.8191,0.8058,1.1839,-1.8899,1.1044,2.7214,1.0430
14880,0.0987,-0.0766,9.8093,0.6582,0.9726,-1.9162,1.1198,2.7283,1.0307
14888,0.0667,0.0040,9.8009,0.8077,1.0346,-2.0134,1.1393,2.7343,1.0152
14896,0.1011,0.0231,9.8307,0.5347,1.2751,-1.8796,1.1587,2.7402,0.9996
14904,0.1103,-0.0046,9.8827,0.6923,1.4492,-1.6691,1.1762,2.7447,0.9865
14912,0.1300,-0.0320,9.8418,0.7844,1.6423,-1.1424,1.1925,2.7500,0.9716
14920,0.1912,-0.1069,9.8363,1.1524,1.5203,-0.6654,1.2117,2.7521,0.9538
14928,0.2173,-0.0622,9.8631,0.7736,1.5956,-0.3906,1.2307,2.7555,0.9408
14936,0.2105,0.0507,9.8902,0.9074,1.5316,0.0695,1.2496,2.7589,0.9279
14944,0.1446,0.1324,9.8417,0.6567,1.2918,0.2589,1.2708,2.7632,0.9103
14952,0.1648,0.1667,9.8676,0.3343,1.2438,0.2906,1.2937,2.7694,0.8946
14960,0.1543,0.1859,9.8983,0.3647,1.2966,0.2969,1.3118,2.7717,0.8838
14968,0.1921,0.1476,9.9229,0.7884,1.5363,0.4470,1.3297,2.7740,0.8729
14976,0.2415,0.1003,9.9128,0.3296,1.7496,0.5291,1.3523,2.7764,0.8559
14984,0.2205,-0.0309,9.9388,0.4935,1.4203,0.6157,1.3800,2.7796,0.8419
14992,0.2361,-0.0025,9.9687,0.4502,1.6013,0.8185,1.4075,2.7828,0.8278
15000,0.2234,-0.0542,9.9497,0.6542,1.5451,1.0177,1.4343,2.7879,0.8110
15008,0.1786,0.0748,9.9266,0.7559,1.3927,1.1362,1.4610,2.7929,0.7942
15016,0.1491,0.1414,9.8788,0.4771,1.5189,1.1216,1.4875,2.7979,0.7775
15024,0.1401,0.1557,9.8711,0.3066,1.6156,0.9956,1.5119,2.7986,0.7594
15032,0.1060,0.1563,9.8983,0.3621,1.3641,0.7364,1.5362,2.7993,0.7414
15040,0.0910,0.1915,9.8960,0.5006,1.3396,0.3233,1.5580,2.8000,0.7210
15048,0.0980,0.1987,9.9359,0.5877,1.5535,-0.0532,1.5796,2.8007,0.7008
15056,0.0871,0.1538,9.9660,0.7696,1.3234,-0.0345,1.6072,2.8060,0.6782
15064,0.0871,0.1168,9.9286,0.7303,0.9540,-0.2592,1.6285,2.8090,0.6567
15072,0.0121,0.2332,9.8888,0.8660,0.8061,-0.0422,1.6549,2.8110,0.6338
15080,0.0639,0.1768,9.9398,0.7451,0.6540,-0.1013,1.6801,2.8121,0.6153
15088,0.0863,0.1795,9.9099,0.5042,1.0499,0.1515,1.7052,2.8131,0.5969
15096,0.0914,0.0504,9.9075,0.5671,1.0125,0.0732,1.7334,2.8118,0.5767
15104,0.0743,-0.0050,9.9061,0.2700,1.0353,0.0224,1.7601,2.8147,0.5547
15112,0.0669,-0.0606,9.9109,0.1911,0.8652,0.4298,1.7823,2.8156,0.5308
15120,0.0593,-0.0882,9.9065,0.2304,0.9452,0.5527,1.8091,2.8204,0.5109
15128,0.0552,-0.0967,9.9148,0.1107,0.7977,0.9556,1.8357,2.8251,0.4910
15136,0.0456,-0.0770,9.9055,-0.3532,0.9206,1.5621,1.8665,2.8227,0.4637
15144,0.0528,-0.0452,9.9117,-0.4101,0.7582,1.9955,1.8970,2.8203,0.4365
15152,0.0471,-0.0742,9.9263,-0.5258,0.6695,2.1166,1.9287,2.8197,0.4089
15160,0.0377,-0.0585,9.8435,-0.6419,0.3101,1.7924,1.9603,2.8192,0.3815
15168,0.0498,-0.0457,9.8310,-1.0435,0.2196,1.6931,1.9916,2.8187,0.3542
15176,0.0744,-0.1043,9.8624,-0.8862,0.4239,1.6087,2.0223,2.8129,0.3309
15184,0.0766,-0.1235,9.8786,-0.9171,0.7151,1.5548,2.0527,2.8071,0.3076
15192,0.0718,-0.1196,9.8654,-1.1654,0.3963,2.0765,2.0830,2.8061,0.2845
15200,0.0838,-0.0504,9.8467,-1.3921,0.4488,1.7167,2.1131,2.8051,0.2615
15208,0.0646,0.0186,9.7874,-1.2995,0.3550,1.7567,2.1430,2.8040,0.2386
15216,0.0582,-0.0010,9.8453,-1.3017,0.2493,1.6562,2.1684,2.8025,0.2177
15224,0.0692,-0.0101,9.8791,-1.2185,0.1536,2.0081,2.1970,2.8000,0.1880
15232,0.0746,0.0227,9.8704,-1.4082,0.0273,1.9500,2.2291,2.7985,0.1626
15240,0.0814,-0.0319,9.8667,-1.5630,-0.1840,2.1691,2.2611,2.7970,0.1374
15248,0.1121,-0.0904,9.8975,-1.6016,-0.3755,1.9520,2.2858,2.7954,0.1114
15256,0.0884,-0.0955,9.8939,-1.3480,-0.4359,1.6030,2.3136,2.7905,0.0860
15264,0.0933,-0.0992,9.8611,-1.3427,-0.4964,1.8852,2.3421,2.7871,0.0608
15272,0.0755,-0.1723,9.8528,-1.2150,-0.3035,2.0725,2.3709,2.7832,0.0337
15280,0.0649,-0.1464,9.8007,-1.3702,-0.2151,2.1956,2.3996,2.7793,0.0069
15288,0.0611,-0.0810,9.8327,-1.5666,-0.2745,2.1933,2.4275,2.7673,-0.0203
15296,0.0724,-0.1572,9.8531,-1.0558,-0.2247,2.0017,2.4553,2.7553,-0.0474
15304,0.0552,-0.1832,9.8688,-1.0900,-0.3077,1.5039,2.4829,2.7482,-0.0744
15312,0.0669,-0.1098,9.9026,-0.6987,-0.5364,0.9905,2.5104,2.7410,-0.1012
15320,0.0776,-0.1136,9.9026,-0.5751,-0.1738,0.6062,2.5376,2.7338,-0.1278
15328,0.0845,-0.2194,9.8831,-0.5877,-0.1524,-0.1746,2.5618,2.7224,-0.1586
15336,0.0730,-0.1093,9.8850,-1.0263,-0.2119,-0.7105,2.5859,2.7110,-0.1892
15344,0.0635,-0.0734,9.8831,-1.0298,-0.2875,-1.6204,2.6098,2.7049,-0.2182
15352,0.0467,-0.0957,9.9155,-0.7904,-0.3225,-2.4425,2.6335,2.6988,-0.2471
15360,0.0028,-0.0174,9.9344,-0.7162,-0.3132,-3.2126,2.6570,2.6927,-0.2758
15368,0.0237,-0.0344,9.9305,-0.9999,0.2743,-3.9117,2.6790,2.6851,-0.3020
15376,0.0257,-0.0654,9.9242,-0.7139,-0.0119,-4.7749,2.7022,2.6762,-0.3271
15384,0.0302,-0.1703,9.8840,-0.7310,0.0238,-5.1977,2.7281,2.6706,-0.3549
15392,0.0617,-0.2284,9.8225,-0.7474,0.1726,-5.7354,2.7539,2.6650,-0.3826
15400,0.0979,-0.2418,9.8283,-0.5631,0.0935,-6.0522,2.7728,2.6613,-0.4144
15408,0.1425,-0.2835,9.7949,-0.4001,0.0926,-6.1978,2.7940,2.6514,-0.4460
15416,0.1182,-0.2953,9.8152,-0.7003,-0.3030,-6.6463,2.8117,2.6440,-0.4760
15424,0.1704,-0.3247,9.7985,-0.8807,-0.3052,-7.0700,2.8302,2.6351,-0.5072
15432,0.1917,-0.2907,9.8089,-0.9519,-0.2434,-7.1631,2.8486,2.6262,-0.5383
15440,0.2288,-0.3277,9.8539,-0.8039,-0.0403,-7.2814,2.8682,2.6212,-0.5678
15448,0.2250,-0.3066,9.8235,-0.6891,0.1166,-6.9066,2.8830,2.6124,-0.6019
15456,0.2752,-0.4178,9.8028,-0.5393,0.1413,-6.5589,2.9005,2.6069,-0.6352
15464,0.2647,-0.4861,9.8616,-0.1161,0.1143,-6.0290,2.9179,2.6014,-0.6685
15472,0.2552,-0.4672,9.8510,-0.2020,0.0645,-5.3383,2.9351,2.5959,-0.7015
15480,0.2320,-0.4410,9.8536,0.0864,0.0008,-4.6671,2.9526,2.5824,-0.7348
15488,0.2251,-0.2934,9.8597,0.2263,-0.0947,-4.3027,2.9701,2.5689,-0.7679
15496,0.1761,-0.1039,9.8188,0.1814,-0.2181,-3.7781,2.9845,2.5550,-0.8027
15504,0.1272,0.0185,9.7799,-0.0962,-0.2908,-3.1245,2.9989,2.5411,-0.8373
15512,0.1795,0.0736,9.7356,0.0170,-0.2802,-2.8062,3.0131,2.5273,-0.8718
15520,0.1639,-0.0391,9.7201,-0.2375,-0.0248,-1.8751,3.0310,2.5182,-0.9060
15528,0.1417,0.0201,9.7389,-0.2941,0.0968,-1.3314,3.0468,2.5072,-0.9382
15536,0.1202,-0.0688,9.7682,-0.2203,-0.0270,-0.5448,3.0559,2.4911,-0.9720
15544,0.1240,-0.1124,9.7528,-0.1843,0.0680,0.1327,3.0650,2.4750,-1.0057
15552,0.0877,-0.0754,9.7780,0.0554,0.0202,0.7726,3.0829,2.4609,-1.0372
15560,0.0755,-0.0619,9.7844,0.0980,-0.3562,1.1072,3.0950,2.4453,-1.0752
15568,0.0940,-0.0806,9.8044,0.1627,-0.4121,1.1738,3.1060,2.4327,-1.1140
15576,0.0806,-0.0334,9.8192,0.0725,-0.2896,0.8268,3.1212,2.4134,-1.1472
15584,0.0886,0.0363,9.7666,0.1517,-0.3218,0.9457,3.1363,2.3942,-1.1803
15592,0.0813,0.0009,9.7742,-0.1033,-0.1179,0.9607,3.1518,2.3722,-1.2170
15600,0.0833,-0.1008,9.7514,-0.1898,0.0610,0.8871,3.1614,2.3526,-1.2524
15608,0.0769,-0.0685,9.7581,0.0821,-0.0105,1.1527,3.1743,2.3293,-1.2901
15616,0.0834,-0.0935,9.7819,0.1555,-0.2522,1.8013,3.1870,2.3061,-1.3275
15624,0.0611,-0.1211,9.7747,-0.0490,-0.1153,2.2162,3.1997,2.2829,-1.3647
15632,0.0436,-0.1606,9.8065,-0.0285,-0.1898,2.9063,3.2061,2.2608,-1.3988
15640,0.0738,-0.0584,9.7898,-0.2356,-0.2664,2.9849,3.2124,2.2387,-1.4327
15648,0.0883,-0.0260,9.7632,-0.4550,-0.2569,3.0441,3.2215,2.2124,-1.4669
15656,0.0496,0.0001,9.7364,-0.6621,-0.1838,2.9407,3.2305,2.1862,-1.5009
15664,0.0246,-0.0277,9.7541,-0.4442,-0.0126,2.8178,3.2393,2.1601,-1.5347
15672,0.0037,0.0300,9.7309,-0.4064,-0.0409,2.4469,3.2453,2.1359,-1.5654
15680,0.0040,-0.0203,9.7378,-0.4343,-0.1000,1.8363,3.2502,2.1085,-1.5988
15688,-0.0204,0.0290,9.7389,-0.0424,0.0222,1.6684,3.2565,2.0774,-1.6272
15696,0.0259,0.0795,9.7832,-0.2275,0.2404,1.4438,3.2627,2.0464,-1.6555
15704,-0.0283,0.0372,9.7240,-0.5753,0.3237,0.9490,3.2636,2.0150,-1.6831
15712,0.0001,-0.0401,9.7315,-0.3025,0.2033,0.6199,3.2683,1.9843,-1.7143
15720,-0.0029,-0.1430,9.7437,-0.4096,0.1229,0.1212,3.2728,1.9503,-1.7444
15728,0.0084,-0.1490,9.7994,-0.4214,0.0274,-0.7184,3.2745,1.9169,-1.7724
15736,0.0092,-0.0820,9.7920,-0.3126,0.1093,-0.8200,3.2761,1.8837,-1.8002
15744,0.0039,0.0355,9.7657,-0.2860,-0.0150,-1.0904,3.2776,1.8521,-1.8292
15752,-0.0040,0.0448,9.7564,-0.0791,0.1248,-1.5597,3.2767,1.8205,-1.8543
15760,-0.0021,0.0369,9.7654,-0.0440,0.0959,-1.9097,3.2791,1.7872,-1.8812
15768,-0.0231,0.1276,9.6833,-0.2371,0.0842,-2.2658,3.2814,1.7541,-1.9078
15776,-0.0627,0.1979,9.6600,-0.0351,0.2463,-2.6624,3.2837,1.7210,-1.9343
15784,-0.0064,0.0537,9.6558,-0.3246,0.2093,-3.1775,3.2802,1.6848,-1.9554
15792,0.0226,0.0946,9.6994,-0.2494,0.2593,-2.9155,3.2766,1.6488,-1.9764
15800,0.0338,0.0942,9.7010,-0.2229,0.2485,-3.5503,3.2692,1.6171,-1.9991
15808,0.0258,-0.0346,9.6947,-0.2695,0.3661,-3.6400,3.2618,1.5856,-2.0216
15816,0.0103,-0.0049,9.7009,-0.0074,0.2412,-3.9658,3.2544,1.5543,-2.0441
15824,0.0040,-0.0460,9.7078,0.0406,-0.0782,-3.5013,3.2493,1.5146,-2.0649
15832,0.0011,-0.0986,9.7533,0.0438,-0.2876,-3.3105,3.2442,1.4802,-2.0813
15840,0.0030,-0.1312,9.8290,-0.2518,-0.3572,-3.3120,3.2339,1.4489,-2.0966
15848,0.0202,-0.1757,9.8447,-0.3318,-0.1144,-3.2361,3.2249,1.4121,-2.1128
15856,0.0157,-0.1034,9.7852,-0.4910,0.2084,-3.2515,3.2159,1.3754,-2.1289
15864,-0.0143,-0.0936,9.7891,-0.7605,0.1811,-3.1116,3.2041,1.3352,-2.1405
15872,-0.0374,-0.0852,9.8213,-0.6209,-0.0690,-2.8952,3.1960,1.2961,-2.1544
15880,0.0155,-0.2134,9.8250,-0.6848,-0.0282,-2.7069,3.1832,1.2571,-2.1706
15888,0.0261,-0.1995,9.8179,-0.4979,0.0776,-2.3401,3.1671,1.2184,-2.1866
15896,-0.0131,-0.1428,9.7823,-0.6098,0.1840,-2.0854,3.1510,1.1817,-2.2006
15904,-0.0090,-0.1183,9.8461,-0.6528,0.1604,-2.2418,3.1348,1.1452,-2.2145
15912,0.0103,-0.1453,9.8766,-0.9206,0.5166,-2.1968,3.1234,1.1098,-2.2259
15920,-0.0083,-0.0751,9.7748,-0.8807,0.4145,-1.6763,3.1121,1.0747,-2.2372
15928,0.0081,-0.0407,9.6928,-0.8345,0.3461,-1.6080,3.1007,1.0396,-2.2484
15936,-0.0389,-0.0751,9.6627,-0.8330,0.2835,-1.4599,3.0878,1.0034,-2.2534
15944,-0.0369,-0.1003,9.6987,-0.7196,-0.0377,-1.2011,3.0750,0.9673,-2.2582
15952,-0.0209,-0.0767,9.7282,-0.5979,-0.2089,-1.0895,3.0622,0.9323,-2.2630
15960,-0.0160,-0.1811,9.6920,-0.2921,-0.6233,-0.2682,3.0493,0.8975,-2.2677
15968,-0.0426,0.0393,9.6738,-0.4103,-0.7609,-0.0561,3.0365,0.8629,-2.2723
15976,-0.0433,0.0806,9.6911,-0.3954,-0.8045,0.3121,3.0199,0.8251,-2.2754
15984,-0.0454,0.1999,9.6776,-0.4638,-0.6248,0.7415,3.0033,0.7898,-2.2775
15992,-0.0751,0.1476,9.7737,-0.6838,-0.4050,1.3201,2.9838,0.7562,-2.2814
16000,-0.0432,0.0602,9.7783,-0.3103,-0.3575,1.9214,2.9672,0.7213,-2.2857
16008,-0.0029,0.0986,9.8389,-0.1371,-0.3200,2.2831,2.9507,0.6865,-2.2899
16016,-0.0075,0.0140,9.8058,-0.1661,-0.6655,2.4876,2.9317,0.6529,-2.2917
16024,-0.0107,-0.0921,9.8365,-0.2445,-0.7186,2.9551,2.9142,0.6170,-2.2911
16032,-0.0109,-0.1777,9.8611,-0.3568,-0.7800,3.0449,2.8973,0.5833,-2.2908
16040,-0.0133,-0.1645,9.8437,-0.2163,-0.7214,3.3628,2.8770,0.5473,-2.2905
16048,-0.0310,-0.1676,9.8707,0.0168,-0.8041,3.7521,2.8567,0.5115,-2.2902
16056,-0.0511,-0.0801,9.8752,-0.2056,-0.5524,3.5457,2.8365,0.4758,-2.2898
16064,-0.0292,-0.0329,9.9621,-0.1276,-0.2504,3.9190,2.8177,0.4422,-2.2879
16072,-0.0563,0.0558,9.9000,-0.0797,-0.5350,3.9960,2.7989,0.4088,-2.2859
16080,-0.0326,0.1301,9.8634,0.0461,-0.5004,4.4430,2.7778,0.3764,-2.2802
16088,-0.0116,0.1300,9.8421,0.1584,-0.2301,4.6997,2.7567,0.3442,-2.2743
16096,0.0207,0.0657,9.7928,0.1378,0.1645,4.7905,2.7356,0.3122,-2.2685
16104,0.0585,0.1742,9.8165,-0.2179,-0.0102,4.7867,2.7099,0.2841,-2.2616
16112,0.0317,0.2764,9.8617,-0.5234,-0.0360,4.0791,2.6856,0.2547,-2.2595
16120,-0.0026,0.3043,9.7882,-0.7302,0.0194,4.3224,2.6613,0.2255,-2.2573
16128,0.0320,0.3441,9.7627,-0.1200,-0.4023,4.2324,2.6395,0.1954,-2.2513
16136,0.0250,0.3942,9.7150,-0.1471,-0.3949,4.2477,2.6153,0.1726,-2.2452
16144,0.0178,0.3598,9.7270,0.0243,-0.5184,4.9183,2.5912,0.1429,-2.2429
16152,0.0031,0.3802,9.6153,-0.2624,-0.8633,5.0556,2.5652,0.1090,-2.2339
16160,0.0116,0.3663,9.6340,-0.1366,-0.9504,5.5975,2.5393,0.0752,-2.2249
16168,0.0430,0.3866,9.6774,-0.2750,-0.6337,5.4357,2.5139,0.0444,-2.2201
16176,0.0232,0.4750,9.6774,-0.0740,-0.6801,5.3797,2.4833,0.0157,-2.2077
16184,0.0416,0.4712,9.6871,-0.4311,-0.4659,5.6062,2.4599,-0.0081,-2.2010
16192,0.0283,0.4368,9.6347,-0.2286,0.1256,5.3427,2.4342,-0.0319,-2.1943
16200,0.0185,0.4481,9.6457,0.0424,0.1846,4.8401,2.4085,-0.0555,-2.1875
16208,-0.0414,0.4391,9.6643,-0.1145,0.5237,4.7808,2.3829,-0.0790,-2.1807
16216,-0.0628,0.2752,9.7066,-0.2565,0.7893,4.8628,2.3544,-0.1066,-2.1711
16224,-0.0922,0.2207,9.7084,-0.2456,0.9632,4.5785,2.3261,-0.1341,-2.1614
16232,-0.0937,0.1573,9.7201,-0.3126,1.0816,4.1786,2.2997,-0.1596,-2.1522
16240,-0.0705,0.0362,9.8004,-0.6646,0.6374,3.9162,2.2733,-0.1850,-2.1429
16248,-0.0591,-0.0215,9.8370,-0.9665,0.8954,3.4494,2.2470,-0.2102,-2.1337
16256,-0.0556,-0.0127,9.7773,-0.7620,0.8327,3.2482,2.2170,-0.2340,-2.1244
16264,-0.0492,-0.0133,9.7874,-1.1850,0.7514,3.3145,2.1880,-0.2556,-2.1113
16272,-0.0703,-0.1369,9.8554,-1.4402,0.8364,3.1513,2.1600,-0.2715,-2.1039
16280,-0.0885,-0.1476,9.8116,-1.0949,0.8536,3.2965,2.1320,-0.2874,-2.0965
16288,-0.1050,-0.1195,9.7329,-0.6554,0.9635,3.3527,2.1018,-0.3078,-2.0833
16296,-0.0538,-0.1077,9.7887,-0.8750,1.0365,4.0118,2.0739,-0.3282,-2.0702
16304,-0.0713,-0.1485,9.7814,-0.6158,1.1916,4.3860,2.0438,-0.3484,-2.0557
16312,-0.0694,-0.2461,9.7456,-0.8719,0.7560,4.6773,2.0157,-0.3653,-2.0411
16320,-0.0512,-0.2988,9.8098,-0.9274,0.4728,4.6117,1.9875,-0.3820,-2.0285
16328,-0.0412,-0.1224,9.8073,-0.8792,0.5432,4.4504,1.9590,-0.4020,-2.0153
16336,0.0235,-0.1058,9.8127,-0.9318,0.7440,4.4108,1.9311,-0.4186,-1.9979
16344,0.0032,-0.0547,9.7799,-1.2834,1.0746,4.3303,1.9003,-0.4384,-1.9872
16352,0.0218,-0.1343,9.8135,-1.3023,1.0841,3.9706,1.8696,-0.4580,-1.9764
16360,0.0490,-0.2072,9.8325,-0.9204,1.2505,4.2694,1.8390,-0.4776,-1.9657
16368,0.0404,-0.2509,9.8388,-1.1151,1.4576,4.3684,1.8061,-0.4910,-1.9502
16376,0.0445,-0.0776,9.7920,-0.7680,1.7143,4.4230,1.7733,-0.5042,-1.9347
16384,0.0368,-0.2265,9.8295,-0.2895,1.5065,3.4166,1.7443,-0.5202,-1.9197
16392,0.0449,-0.3235,9.8606,0.0908,1.3531,3.3823,1.7154,-0.5362,-1.9046
16400,0.0535,-0.3406,9.8451,-0.2282,1.3851,2.8881,1.6866,-0.5520,-1.8897
16408,0.0604,-0.4121,9.8128,0.1601,0.9543,2.3701,1.6522,-0.5636,-1.8775
16416,0.0731,-0.4522,9.7804,0.3554,1.1478,1.9655,1.6189,-0.5778,-1.8621
16424,0.0417,-0.4101,9.7310,0.5395,1.3327,1.9039,1.5856,-0.5954,-1.8476
16432,0.0611,-0.3721,9.7675,0.5023,1.0749,2.1544,1.5524,-0.6128,-1.8331
16440,0.0774,-0.4082,9.7362,0.6479,1.1111,2.2205,1.5165,-0.6249,-1.8205
16448,0.1339,-0.4924,9.6669,0.5819,1.0363,2.5291,1.4807,-0.6370,-1.8032
16456,0.1218,-0.5026,9.6611,0.5561,0.9141,2.4242,1.4431,-0.6480,-1.7887
16464,0.0840,-0.5236,9.6108,0.7501,0.7920,2.4626,1.4104,-0.6628,-1.7733
16472,0.0447,-0.6041,9.6509,0.7276,0.6538,1.9393,1.3778,-0.6775,-1.7579
16480,0.0880,-0.5057,9.6581,0.8154,0.5777,1.8682,1.3458,-0.6893,-1.7454
16488,0.1021,-0.5574,9.6609,0.7341,0.5663,2.0028,1.3125,-0.7029,-1.7348
16496,0.0507,-0.4648,9.6457,0.9923,0.5100,2.2143,1.2812,-0.7126,-1.7203
16504,0.0511,-0.5404,9.6415,1.1165,0.3788,2.0005,1.2500,-0.7223,-1.7059
16512,0.0614,-0.5250,9.6386,1.1367,0.1654,1.9240,1.2189,-0.7319,-1.6915
16520,0.0776,-0.5763,9.6072,1.0813,0.0093,2.2803,1.1874,-0.7457,-1.6791
16528,0.0535,-0.5055,9.5848,1.3377,0.1828,1.8183,1.1561,-0.7595,-1.6666
16536,0.0258,-0.5454,9.6055,1.2468,-0.1607,1.7684,1.1215,-0.7708,-1.6494
16544,0.0276,-0.5191,9.6279,1.1786,-0.0866,1.5181,1.0871,-0.7820,-1.6322
16552,0.0439,-0.4620,9.7047,1.0467,0.0644,1.5588,1.0527,-0.7932,-1.6150
16560,0.0221,-0.4655,9.6889,0.8379,-0.0126,1.3817,1.0218,-0.8020,-1.6017
16568,0.0284,-0.4937,9.7676,0.9449,-0.1529,1.4229,0.9901,-0.8130,-1.5845
16576,0.0577,-0.4518,9.8880,0.9592,-0.0524,1.4971,0.9561,-0.8226,-1.5722
16584,0.0816,-0.3902,9.8680,1.1356,-0.1376,1.5867,0.9222,-0.8321,-1.5598
16592,0.0844,-0.3718,9.7908,1.4189,-0.2805,1.7496,0.8908,-0.8392,-1.5475
16600,0.1258,-0.3811,9.8201,1.4712,-0.5850,1.6655,0.8567,-0.8506,-1.5356
16608,0.1372,-0.3831,9.8084,1.3131,-0.6976,1.8064,0.8213,-0.8533,-1.5251
16616,0.1239,-0.4638,9.7473,1.1087,-0.6826,2.0344,0.7897,-0.8631,-1.5100
16624,0.1464,-0.4434,9.7544,1.0039,-0.4976,1.8658,0.7583,-0.8728,-1.4948
16632,0.1696,-0.3840,9.8382,1.0956,-0.4567,1.6992,0.7256,-0.8754,-1.4820
16640,0.1796,-0.3899,9.9656,1.0473,-0.5349,1.9346,0.6953,-0.8817,-1.4702
16648,0.1759,-0.3874,9.9642,0.9079,-0.6764,1.9971,0.6637,-0.8923,-1.4546
16656,0.1370,-0.3383,9.9265,0.8945,-0.9076,2.5901,0.6323,-0.9028,-1.4391
16664,0.1314,-0.2561,9.9293,0.9297,-0.8541,3.0718,0.6009,-0.9132,-1.4235
16672,0.1118,-0.1799,9.8990,0.8113,-0.7763,3.5059,0.5663,-0.9217,-1.4108
16680,0.1369,-0.0895,9.9067,0.6288,-0.8139,3.5183,0.5319,-0.9301,-1.3982
16688,0.1327,-0.0937,9.9077,0.6276,-0.9058,3.8554,0.4971,-0.9390,-1.3850
16696,0.1384,-0.0184,9.8631,0.5198,-0.8043,3.7539,0.4624,-0.9478,-1.3719
16704,0.1054,0.0398,9.8195,0.3261,-0.8860,3.7287,0.4278,-0.9566,-1.3588
16712,0.1324,0.0355,9.8225,0.2235,-0.9321,3.7127,0.3985,-0.9648,-1.3486
16720,0.1041,0.1173,9.8005,0.0107,-0.8749,3.4040,0.3666,-0.9711,-1.3374
16728,0.0902,0.1739,9.7338,0.0605,-0.7961,3.3115,0.3342,-0.9792,-1.3281
16736,0.0882,0.1241,9.8333,0.1775,-0.7208,3.2578,0.3020,-0.9873,-1.3188
16744,0.1187,0.1195,9.8681,0.2734,-0.5475,3.1770,0.2703,-0.9982,-1.3077
16752,0.0866,0.1040,9.8610,0.3678,-0.4111,2.9771,0.2364,-1.0105,-1.3013
16760,0.0672,0.1246,9.7871,0.4527,-0.5393,2.9086,0.2083,-1.0179,-1.2892
16768,0.0377,0.0917,9.7649,0.5499,-0.6699,3.0698,0.1770,-1.0254,-1.2771
16776,0.0225,0.2064,9.7831,0.5388,-0.6027,3.0052,0.1457,-1.0327,-1.2650
16784,0.0396,0.1435,9.7795,0.6882,-0.6212,2.8342,0.1146,-1.0400,-1.2520
16792,0.0711,0.1489,9.8117,0.7218,-0.6149,2.7639,0.0812,-1.0459,-1.2399
16800,0.0540,0.1269,9.7147,0.7085,-0.5049,2.7714,0.0555,-1.0541,-1.2270
16808,0.0199,0.0993,9.8456,0.7998,-0.5010,2.7013,0.0299,-1.0622,-1.2140
16816,0.0082,0.1044,9.8192,0.8525,-0.5746,2.6902,0.0044,-1.0703,-1.2010
16824,0.0294,0.0830,9.8491,0.7802,-0.5836,2.5302,-0.0234,-1.0803,-1.1886
16832,0.0386,0.0910,9.7986,0.8444,-0.6669,2.5906,-0.0511,-1.0902,-1.1762
16840,0.0297,0.0277,9.8687,0.9298,-0.7520,2.7524,-0.0815,-1.0972,-1.1666
16848,0.0448,0.0405,9.8957,0.7848,-0.7959,2.9390,-0.1118,-1.1041,-1.1570
16856,0.0667,0.0475,9.8959,0.7874,-0.8486,2.8562,-0.1421,-1.1111,-1.1475
16864,0.0482,-0.0290,9.9203,0.6540,-0.9417,2.7797,-0.1703,-1.1184,-1.1384
16872,0.0638,-0.0773,9.9328,0.5504,-0.8787,2.8851,-0.1975,-1.1267,-1.1284
16880,0.0488,-0.1283,9.8985,0.5179,-0.8478,2.8687,-0.2255,-1.1349,-1.1160
16888,0.0371,-0.2410,9.9491,0.5216,-0.9382,2.7569,-0.2535,-1.1431,-1.1036
16896,0.0519,-0.2463,9.7917,0.5544,-0.8674,2.7994,-0.2832,-1.1521,-1.0942
16904,0.0426,-0.3304,9.7062,0.4712,-0.7970,2.7627,-0.3171,-1.1593,-1.0828
16912,0.0414,-0.4366,9.7504,0.5489,-0.9136,2.4369,-0.3476,-1.1607,-1.0686
16920,0.0705,-0.6443,9.7444,0.5885,-0.7745,2.5147,-0.3718,-1.1673,-1.0544
16928,0.0803,-0.3981,10.0889,0.7891,-0.7161,2.5784,-0.3959,-1.1738,-1.0402
16936,0.0802,-0.4231,10.1910,0.7276,-0.7590,2.5434,-0.4228,-1.1766,-1.0308
16944,0.1561,-0.5128,10.1340,0.8127,-0.6933,2.5445,-0.4490,-1.1798,-1.0148
16952,0.0849,-0.4554,10.0068,0.8275,-0.7452,2.4283,-0.4757,-1.1886,-1.0007
16960,0.1430,-0.1875,9.7350,0.9136,-0.7974,2.4425,-0.5022,-1.1974,-0.9867
16968,0.1210,-0.3570,9.6973,0.9880,-0.7728,2.2053,-0.5287,-1.2061,-0.9726
16976,0.2194,-0.1627,9.9587,0.9818,-0.8211,2.1359,-0.5607,-1.2134,-0.9610
16984,0.2001,-0.1828,9.9471,1.0371,-0.7981,1.9976,-0.5927,-1.2207,-0.9494
16992,0.2053,-0.1960,9.9033,1.0634,-0.7867,1.7693,-0.6211,-1.2269,-0.9368
17000,0.2019,-0.3086,9.8964,1.0672,-0.8425,1.5723,-0.6495,-1.2331,-0.9243
17008,0.2221,-0.3790,9.8725,1.1615,-0.8531,1.4985,-0.6778,-1.2393,-0.9118
17016,0.2079,-0.3357,9.8640,1.2011,-0.7807,1.4254,-0.7041,-1.2459,-0.8997
17024,0.1902,-0.2173,9.8386,1.2255,-0.7994,1.2434,-0.7350,-1.2454,-0.8830
17032,0.2233,-0.0368,9.7582,1.3129,-0.8199,1.1547,-0.7630,-1.2477,-0.8739
17040,0.2040,-0.0853,9.7633,1.2951,-0.8076,0.9206,-0.7904,-1.2519,-0.8581
17048,0.1766,-0.1496,9.7575,1.2728,-0.7585,0.7981,-0.8177,-1.2561,-0.8424
17056,0.1636,-0.1295,9.7545,1.1875,-0.7941,0.7289,-0.8425,-1.2588,-0.8291
17064,0.1473,-0.1751,9.7645,1.2418,-0.7323,0.6307,-0.8634,-1.2610,-0.8178
17072,0.1348,-0.1539,9.7654,1.1525,-0.6811,0.5688,-0.8886,-1.2670,-0.8054
17080,0.1267,-0.1348,9.7708,1.1604,-0.6401,0.6270,-0.9136,-1.2729,-0.7931
17088,0.1235,-0.0997,9.7852,1.0853,-0.6543,0.5359,-0.9343,-1.2736,-0.7771
17096,0.1124,0.0359,9.7946,1.1388,-0.6039,0.4702,-0.9596,-1.2762,-0.7606
17104,0.0773,0.0807,9.7653,1.1820,-0.5130,0.2847,-0.9849,-1.2826,-0.7451
17112,0.0755,0.0712,9.7511,1.2206,-0.5114,0.0700,-1.0100,-1.2889,-0.7296
17120,0.0690,0.1600,9.7601,1.0816,-0.5792,-0.0101,-1.0351,-1.2951,-0.7142
17128,0.0681,0.3557,9.6603,1.0686,-0.5854,-0.0546,-1.0624,-1.2967,-0.7011
17136,0.0677,0.2170,9.6542,1.0562,-0.5727,-0.1718,-1.0897,-1.2981,-0.6881
17144,0.1270,0.1918,9.6583,1.0416,-0.4805,-0.0839,-1.1135,-1.3029,-0.6718
17152,0.1119,0.1316,9.6716,1.0917,-0.4216,-0.0799,-1.1372,-1.3077,-0.6555
17160,0.0796,0.1541,9.6608,0.9450,-0.5654,-0.1214,-1.1609,-1.3124,-0.6393
17168,0.0476,0.1868,9.7226,1.0206,-0.5535,-0.1477,-1.1882,-1.3190,-0.6259
17176,0.0209,0.1781,9.8104,1.0690,-0.5555,-0.2075,-1.2107,-1.3237,-0.6107
17184,-0.0656,0.1251,9.7832,1.0859,-0.5654,0.0899,-1.2379,-1.3241,-0.5974
