Timestamp_ms,AccX_Filt,AccY_Filt,AccZ_Filt,GyrX_Filt,GyrY_Filt,GyrZ_Filt,MagX_Filt,MagY_Filt,MagZ_Filt
5233,-0.0642,-0.0533,9.8373,0.4527,-0.6379,1.0463,10.3950,4.3200,-52.7850
5240,-0.0334,-0.0392,9.8111,-0.0333,0.2738,1.0793,10.6223,4.7163,-54.9510
5248,-0.0295,-0.0198,9.8055,-0.0739,0.3348,0.8461,10.9568,4.5514,-55.4381
5256,-0.0114,-0.0558,9.7977,-0.0942,-0.1559,0.3305,11.1008,4.4556,-55.5494
5264,0.0249,-0.0392,9.7869,0.0661,0.1405,0.1064,11.0489,4.3591,-55.7708
5272,0.0182,-0.0392,9.7813,0.4009,0.2148,-0.2813,10.8734,4.5324,-55.5330
5280,0.0133,-0.0446,9.7811,0.3017,0.2591,0.0121,10.7323,4.6503,-55.2845
5288,0.0040,-0.0432,9.7642,0.1875,0.0876,0.3514,10.6686,4.6408,-55.0298
5296,0.0128,-0.0498,9.7986,0.0346,0.3921,0.2840,10.6075,4.6284,-54.7716
5304,0.0054,-0.0497,9.8084,0.3429,0.3088,0.2685,10.5482,4.6139,-54.5114
5312,0.0067,-0.0536,9.8084,0.2116,0.2639,0.1195,10.5309,4.5845,-54.3990
5320,0.0139,-0.0404,9.8057,0.2556,0.1383,0.1871,10.3226,4.5811,-54.1007
5328,0.0148,-0.0424,9.8157,0.1386,0.1549,0.3115,10.2764,4.6206,-53.9915
5336,0.0087,-0.0535,9.8139,0.1928,0.0625,0.3752,10.2303,4.6515,-53.8612
5344,0.0060,-0.0424,9.8032,0.1207,-0.0319,0.2331,10.2139,4.6357,-53.6349
5352,-0.0023,-0.0346,9.8008,0.1096,-0.1326,0.0160,10.1287,4.6657,-53.3588
5360,-0.0077,-0.0229,9.7919,0.0328,-0.1760,-0.0595,10.0570,4.6547,-53.0769
5368,0.0034,-0.0125,9.7921,0.0284,-0.2752,0.0300,9.9882,4.6424,-52.7988
5376,-0.0005,-0.0066,9.7905,-0.0571,-0.2208,0.0213,9.9220,4.6293,-52.5241
5384,-0.0097,-0.0051,9.7861,-0.0631,-0.1715,0.1751,9.8133,4.5706,-52.2079
5392,0.0032,-0.0085,9.7968,-0.1672,-0.1667,0.1180,9.7107,4.5154,-51.8991
5400,-0.0011,-0.0036,9.7971,-0.1380,-0.2335,0.1724,9.6951,4.5517,-51.6444
5408,-0.0031,-0.0112,9.8005,-0.2638,-0.0695,-0.0202,9.6772,4.5830,-51.3914
5416,-0.0031,-0.0186,9.8041,-0.1798,-0.0267,-0.1233,9.6760,4.5102,-51.1091
5424,0.0076,-0.0104,9.7963,-0.2216,-0.0601,-0.0560,9.6117,4.4416,-50.8728
5432,0.0002,-0.0123,9.7924,-0.1431,0.0163,-0.0816,9.5722,4.3883,-50.6199
5440,0.0018,-0.0066,9.7931,-0.0893,0.0106,-0.0349,9.5160,4.3485,-50.3525
5448,0.0046,-0.0066,9.7946,0.0145,-0.0105,-0.1615,9.4609,4.3101,-50.0881
5456,0.0098,-0.0083,9.7932,-0.0190,-0.0675,-0.1370,9.3861,4.2679,-49.8320
5464,0.0059,-0.0044,9.7970,0.0141,-0.0810,-0.2091,9.3337,4.2472,-49.5733
5472,0.0179,-0.0078,9.8086,0.0087,-0.0179,-0.1222,9.3305,4.1638,-49.3561
5480,0.0082,0.0002,9.8123,0.0306,0.0024,-0.1215,9.3250,4.0846,-49.1390
5488,0.0017,-0.0068,9.8083,0.0721,-0.0259,-0.1237,9.3175,4.0092,-48.9222
5496,0.0045,-0.0085,9.8184,0.1581,0.0414,-0.1817,9.2994,4.0035,-48.6837
5504,0.0106,-0.0101,9.8207,0.1811,-0.0320,-0.1315,9.2801,3.9972,-48.4469
5512,0.0039,-0.0056,9.8187,0.1796,-0.0523,-0.1969,9.2515,4.0070,-48.2660
5520,0.0097,-0.0002,9.8218,0.1725,0.0637,-0.1352,9.2224,4.0154,-48.0839
5528,0.0090,0.0029,9.8087,0.2171,-0.0264,-0.1910,9.2126,4.0028,-47.8138
5536,-0.0004,-0.0006,9.8165,0.2282,-0.0948,-0.2183,9.1629,3.9901,-47.5935
5544,-0.0038,0.0039,9.8212,0.2387,-0.0297,-0.2301,9.1552,4.0110,-47.3631
5552,0.0105,0.0007,9.8150,0.2796,0.0039,-0.2104,9.1314,3.9568,-47.1601
5560,0.0138,-0.0082,9.8072,0.3212,-0.0285,-0.3259,9.1071,3.9044,-46.9576
5568,0.0095,0.0044,9.8064,0.3022,-0.0035,-0.2212,9.0891,3.8783,-46.7310
5576,0.0156,0.0143,9.7966,0.2925,-0.0326,-0.1632,9.0704,3.8526,-46.5061
5584,0.0121,0.0092,9.8028,0.2694,-0.0214,-0.1275,9.0208,3.8241,-46.3196
5592,0.0116,0.0064,9.8061,0.2585,-0.1267,-0.0714,8.9719,3.7961,-46.1332
5600,-0.0007,0.0075,9.7959,0.2454,-0.1499,-0.1803,8.9235,3.7687,-45.9468
5608,0.0060,0.0071,9.7907,0.1835,-0.1692,-0.0865,8.8695,3.7419,-45.7135
5616,0.0184,-0.0037,9.7920,0.1218,-0.2861,-0.1175,8.8162,3.7155,-45.4823
5624,0.0269,-0.0107,9.7977,0.1531,-0.3430,0.0358,8.7970,3.7017,-45.2561
5632,0.0327,-0.0230,9.7965,0.1748,-0.4380,0.0104,8.7653,3.6760,-45.0289
5640,0.0266,-0.0086,9.7995,0.1655,-0.5042,0.0160,8.7336,3.6508,-44.8037
5648,0.0220,-0.0243,9.7963,0.1485,-0.4478,0.0241,8.6791,3.6659,-44.6260
5656,0.0156,-0.0180,9.7984,0.1324,-0.4510,0.0861,8.6310,3.6660,-44.4149
5664,0.0225,-0.0105,9.7998,0.1358,-0.3836,-0.0145,8.5944,3.6628,-44.1998
5672,0.0110,-0.0191,9.8011,0.1013,-0.4059,0.1219,8.5607,3.6484,-43.9835
5680,0.0070,-0.0156,9.8014,0.0711,-0.3650,0.0740,8.5271,3.6341,-43.7690
5688,0.0152,-0.0060,9.7989,-0.0063,-0.3934,0.1145,8.4936,3.6198,-43.5561
5696,0.0098,-0.0024,9.7994,-0.0425,-0.2831,0.0023,8.4704,3.6029,-43.3475
5704,0.0027,0.0037,9.7990,0.0521,-0.2962,0.0675,8.4470,3.5863,-43.1403
5712,0.0127,0.0009,9.7990,-0.0054,-0.3518,0.0329,8.4010,3.5920,-42.9396
5720,0.0135,-0.0143,9.8008,0.0391,-0.3672,0.1155,8.3555,3.5972,-42.7402
5728,0.0093,-0.0217,9.8025,0.0037,-0.3846,0.0868,8.3346,3.5826,-42.5541
5736,0.0191,-0.0225,9.7958,0.0316,-0.4201,-0.0371,8.3111,3.5657,-42.3429
5744,0.0111,-0.0191,9.8016,-0.0169,-0.3654,-0.1448,8.2547,3.5442,-42.1590
5752,0.0098,-0.0219,9.7918,0.0066,-0.4553,-0.2585,8.1991,3.5230,-41.9761
5760,0.0036,-0.0222,9.7934,0.0531,-0.4608,-0.3242,8.1647,3.5179,-41.7963
5768,0.0062,-0.0243,9.7949,0.0118,-0.5518,-0.3950,8.1550,3.5037,-41.6196
5776,0.0099,-0.0312,9.7976,0.0821,-0.5182,-0.4145,8.1316,3.5028,-41.4238
5784,0.0106,-0.0220,9.7927,0.0182,-0.4085,-0.5027,8.0863,3.5233,-41.2359
5792,0.0111,-0.0195,9.7829,-0.0429,-0.3625,-0.3863,8.0414,3.5428,-41.0491
5800,0.0094,-0.0187,9.7972,0.0164,-0.4255,-0.5239,7.9970,3.5613,-40.8635
5808,0.0069,-0.0252,9.7837,-0.0125,-0.4377,-0.5324,7.9655,3.5456,-40.6915
5816,-0.0041,-0.0243,9.7920,-0.0081,-0.3610,-0.4388,7.9342,3.5300,-40.5203
5824,0.0056,-0.0221,9.7905,0.0764,-0.4375,-0.4136,7.9110,3.5225,-40.3519
5832,-0.0070,-0.0233,9.7963,0.0983,-0.3929,-0.4109,7.8878,3.5149,-40.1843
5840,-0.0107,-0.0216,9.7952,0.0819,-0.4038,-0.3414,7.8546,3.4913,-39.9837
5848,-0.0226,-0.0124,9.7942,0.1303,-0.3741,-0.2296,7.8058,3.4522,-39.8179
5856,-0.0271,-0.0104,9.8006,0.1231,-0.3004,-0.1682,7.7769,3.4235,-39.6491
5864,-0.0380,-0.0086,9.8051,0.1751,-0.2084,-0.1441,7.7558,3.4029,-39.4868
5872,-0.0282,-0.0011,9.8018,0.1206,-0.1393,-0.2039,7.7345,3.3824,-39.3252
5880,-0.0167,0.0003,9.7993,0.0498,-0.1853,-0.1623,7.7038,3.3715,-39.1512
5888,-0.0226,0.0047,9.7942,0.0008,-0.1812,-0.2800,7.6732,3.3605,-38.9783
5896,-0.0084,-0.0008,9.8002,-0.0141,-0.1666,-0.2377,7.6409,3.3567,-38.7990
5904,-0.0033,0.0082,9.7951,0.1079,-0.0539,-0.2534,7.6088,3.3528,-38.6209
5912,-0.0023,0.0169,9.7896,0.0670,-0.0983,-0.1829,7.5768,3.3487,-38.4440
5920,-0.0019,0.0134,9.7850,-0.0147,-0.0500,-0.2036,7.5521,3.3197,-38.2753
5928,0.0108,0.0065,9.7782,0.0165,-0.0946,-0.2261,7.5291,3.3033,-38.1180
5936,0.0040,0.0040,9.7816,0.0063,-0.0571,-0.1995,7.5061,3.2957,-37.9615
5944,-0.0021,0.0122,9.7928,0.0126,-0.0853,-0.1287,7.4830,3.2879,-37.8057
5952,-0.0044,0.0195,9.7930,-0.0214,-0.2004,-0.1732,7.4430,3.2750,-37.6388
5960,-0.0042,0.0085,9.7926,0.0341,-0.2143,-0.0769,7.4051,3.2521,-37.4745
5968,0.0010,0.0048,9.7983,-0.0302,-0.2650,-0.0275,7.3741,3.2443,-37.3179
5976,-0.0021,0.0065,9.7888,0.0044,-0.3055,0.1318,7.3547,3.2233,-37.1489
5984,-0.0003,0.0026,9.7912,0.0054,-0.3708,0.0093,7.3353,3.2026,-36.9809
5992,-0.0019,-0.0014,9.8042,0.0625,-0.3667,0.0202,7.3125,3.1740,-36.8221
6000,-0.0234,0.0119,9.7924,0.0716,-0.3093,0.0226,7.2898,3.1457,-36.6641
6008,-2.5890,1.2655,9.9206,0.0857,-0.0624,-4.8005,7.2513,3.1257,-36.5039
6016,-3.1907,0.9027,9.8229,-0.2315,0.3817,-11.4904,7.2132,3.1059,-36.3446
6024,-4.4311,0.2587,9.8498,-0.3696,0.0783,-17.2020,7.1753,3.0862,-36.1862
6032,-5.7093,-0.3527,9.8838,-0.3682,0.2708,-21.9274,7.1700,3.0729,-36.0303
6040,-6.5757,-1.3158,10.0197,-0.3055,0.7671,-24.9738,7.1733,3.0414,-35.8691
6048,-7.3092,-1.8139,9.9777,-0.0722,0.4014,-24.2275,7.1791,3.0178,-35.7030
6056,-7.4992,-1.7458,9.9052,-0.3105,-0.6070,-23.0897,7.1843,2.9945,-35.5379
6064,-7.8570,-1.8586,9.9798,0.1924,-1.0752,-21.1723,7.1933,2.9640,-35.3769
6072,-8.1994,-2.0431,9.7477,0.3479,-2.4645,-17.9600,7.2046,2.9456,-35.2271
6080,-8.1279,-1.8388,9.7817,0.0459,-2.6594,-14.5281,7.2252,2.9186,-35.0695
6088,-7.8643,-1.5406,9.7952,0.3464,-1.7657,-10.9744,7.2450,2.8920,-34.9128
6096,-7.5104,-1.1819,9.7847,0.1858,-1.7912,-7.7894,7.2639,2.8657,-34.7570
6104,-6.7976,-0.7425,9.8913,1.0777,-2.3969,-3.4451,7.2903,2.8410,-34.5938
6112,-6.1804,-0.4142,9.9718,0.9598,-0.7067,0.7226,7.3158,2.8167,-34.4316
6120,-5.5959,0.1225,9.9914,-0.1690,-0.2451,3.2732,7.3388,2.8162,-34.2830
6128,-4.8680,0.5672,10.1744,-0.2031,-0.3771,4.3334,7.3609,2.8157,-34.1352
6136,-4.2594,0.6142,10.0508,-0.1903,-1.0740,6.0113,7.3822,2.8149,-33.9884
6144,-3.4236,0.6541,9.9686,-0.3114,-0.2977,6.7544,7.4106,2.8222,-33.8437
6152,-2.7643,0.6911,9.8578,-1.0246,1.8314,8.0278,7.4555,2.8305,-33.6917
6160,-2.0429,0.7058,9.7912,-0.5172,2.8113,8.2560,7.4883,2.8479,-33.5393
6168,-1.7213,0.5520,9.6147,-0.2667,1.8469,8.9356,7.5239,2.8688,-33.3958
6176,-1.0353,0.3878,9.7853,-0.3338,1.7941,8.5081,7.5584,2.8891,-33.2531
6184,-0.4042,0.3262,9.8199,-0.2646,1.6103,8.1580,7.6060,2.9284,-33.1191
6192,0.2686,0.1808,9.9049,-0.1452,2.0185,8.3672,7.6562,2.9590,-32.9883
6200,0.7411,0.2277,9.8507,-0.9696,2.2115,9.3780,7.7049,2.9888,-32.8582
6208,1.3340,0.1923,9.8763,-0.8700,2.2628,10.6912,7.7433,3.0446,-32.7286
6216,1.6742,0.2381,9.8945,-0.0520,2.5624,12.2883,7.7804,3.0991,-32.5997
6224,2.1314,0.2509,9.7725,-0.4112,2.3077,13.2022,7.8164,3.1524,-32.4714
6232,2.4942,0.2952,9.7791,-0.7440,1.9467,14.0495,7.8475,3.2108,-32.3624
6240,2.9786,0.4770,9.8289,-0.9529,1.2602,14.4837,7.8850,3.2827,-32.2549
6248,3.2252,0.4944,9.8256,-1.2540,0.9904,15.3976,7.9214,3.3530,-32.1477
6256,3.4060,0.4637,9.8436,-1.1179,0.6870,17.1809,7.9555,3.4194,-32.0395
6264,3.5865,0.5251,9.8444,-1.4598,1.1916,18.3395,7.9800,3.5062,-31.9316
6272,3.6942,0.4423,9.8424,-1.6907,0.9861,19.8021,7.9878,3.5826,-31.8240
6280,3.6819,0.2912,9.8870,-1.1249,1.2803,21.4621,8.0023,3.6551,-31.7298
6288,3.6029,0.0343,9.8686,-1.1225,1.9776,22.9135,8.0160,3.7259,-31.6356
6296,3.4562,-0.2269,9.8693,-1.1148,1.8764,24.2160,8.0373,3.8118,-31.5427
6304,3.2957,-0.4732,9.8809,-0.8008,1.7930,24.9016,8.0413,3.8948,-31.4427
6312,3.2676,-0.6893,9.8216,-0.9699,2.3825,25.2799,8.0447,3.9760,-31.3430
6320,3.2826,-0.7559,9.9001,-0.9183,2.6956,25.5723,8.0303,4.0498,-31.2549
6328,3.2671,-0.7557,9.9183,-1.1115,2.7097,25.5373,8.0155,4.1220,-31.1669
6336,3.3715,-0.8706,10.0304,-1.0724,2.2405,25.4904,8.0005,4.1928,-31.0788
6344,3.4960,-0.8312,10.0176,-1.0909,1.9251,24.9283,7.9864,4.2632,-30.9975
6352,3.4789,-0.6907,10.1681,-0.7886,1.9622,24.1134,7.9720,4.3412,-30.9184
6360,3.6442,-0.6115,10.0141,-1.2569,2.4404,23.3369,7.9506,4.4165,-30.8358
6368,3.7614,-0.5165,10.0470,-1.5927,2.5989,22.6156,7.9291,4.4904,-30.7531
6376,4.2105,-0.5294,10.0721,-1.6632,2.6199,22.5472,7.9163,4.5683,-30.6747
6384,4.3910,-0.4437,10.0885,-1.6079,2.6560,21.7725,7.8933,4.6314,-30.6083
6392,4.4604,-0.4216,10.0719,-1.4616,2.4531,21.3410,7.8725,4.7075,-30.5208
6400,4.5333,-0.5465,10.0966,-1.3938,2.3285,21.0616,7.8569,4.7657,-30.4386
6408,4.3027,-0.6194,10.0692,-1.3343,2.2973,20.6079,7.8411,4.8227,-30.3564
6416,3.9792,-0.6020,10.0745,-1.3387,2.2648,20.2219,7.8155,4.8861,-30.2762
6424,3.7467,-0.4971,10.0674,-1.3830,2.2177,20.0769,7.7897,4.9482,-30.1959
6432,3.7011,-0.2012,10.0570,-1.2466,2.0580,20.2902,7.7682,5.0037,-30.1134
6440,3.7146,0.3180,10.0539,-1.1588,1.9213,19.9981,7.7466,5.0581,-30.0309
6448,3.6798,0.7450,10.0347,-1.0056,1.9026,18.8629,7.7249,5.1114,-29.9483
6456,3.6256,1.1131,10.0305,-0.9631,1.8393,17.1213,7.7104,5.1709,-29.8667
6464,3.6025,1.5327,9.9224,-1.0370,1.8535,15.6212,7.6864,5.2272,-29.7935
6472,3.5985,1.9731,9.8355,-0.9851,1.5924,13.5814,7.6602,5.2823,-29.7004
6480,3.4759,2.2376,9.9309,-0.3595,1.8387,12.3481,7.6340,5.3364,-29.6074
6488,3.4739,2.7393,9.7380,-0.5745,1.2503,10.8701,7.6150,5.3843,-29.5125
6496,3.3864,3.7722,9.8691,-0.5402,0.7329,7.7261,7.5927,5.4394,-29.4270
6504,3.2344,4.4432,9.9454,-0.7847,0.9262,4.0849,7.5796,5.4995,-29.3303
6512,3.0026,4.8398,9.8094,-1.0531,0.9856,0.3710,7.5663,5.5585,-29.2339
6520,2.7805,5.4935,9.7916,-1.3125,0.7731,-4.1405,7.5528,5.6165,-29.1377
6528,2.6146,5.7588,9.8379,-1.0325,0.9593,-7.7961,7.5511,5.6863,-29.0446
6536,2.1875,5.9461,9.6784,-1.9248,0.6146,-12.2730,7.5492,5.7548,-28.9518
6544,1.7660,5.9101,9.6198,-1.6687,-0.1363,-16.6929,7.5638,5.8517,-28.8700
6552,1.4516,5.7801,9.6546,-1.2239,0.2523,-18.9995,7.5779,5.9468,-28.7883
6560,1.1014,5.6474,9.7435,-1.5291,0.0479,-21.3652,7.6120,6.0491,-28.7174
6568,0.7718,5.2499,9.9429,-1.8183,0.3404,-25.1341,7.6483,6.1603,-28.6639
6576,0.5788,4.6643,10.1920,-1.7909,1.4042,-27.8582,7.6963,6.2724,-28.6284
6584,0.2065,4.2109,10.1929,-1.6100,2.8134,-29.8846,7.7740,6.3923,-28.6096
6592,-0.2174,4.0977,10.0835,-1.3491,2.1210,-32.1689,7.8504,6.5101,-28.5900
6600,-0.3755,3.8162,10.2077,-1.8675,2.7122,-32.1081,7.9310,6.6364,-28.5980
6608,-0.4207,3.7428,10.4303,-1.8086,2.3042,-32.5619,8.0394,6.7624,-28.6265
6616,-0.6360,3.7888,10.3625,-1.9789,2.9300,-31.0492,8.1685,6.8911,-28.6968
6624,-0.6272,3.7344,10.4292,-2.9925,3.2752,-29.5520,8.2954,7.0177,-28.7648
6632,-0.6853,3.8122,10.3766,-2.3484,2.1679,-27.4723,8.4200,7.1421,-28.8306
6640,-0.7862,3.8749,10.2920,-1.5885,2.3811,-25.8276,8.5751,7.2477,-28.9379
6648,-0.7722,4.0237,10.3955,-1.6164,2.6702,-24.5508,8.7274,7.3515,-29.0424
6656,-0.6881,3.9346,10.2590,-2.4858,3.2427,-23.0338,8.9104,7.3999,-29.2169
6664,-0.6607,3.7433,10.1925,-2.6745,2.7502,-21.3752,9.1104,7.4240,-29.3922
6672,-0.6003,3.6035,10.1556,-2.9030,3.5192,-20.5330,9.3072,7.4473,-29.5637
6680,-0.5234,3.5011,9.9951,-3.3721,3.7693,-19.5491,9.5252,7.4322,-29.7315
6688,-0.4024,3.4057,10.0334,-3.4954,1.7658,-19.9122,9.7587,7.3849,-29.8766
6696,-0.3429,2.8311,9.9993,-4.3520,2.4498,-20.7633,10.0126,7.3167,-30.0183
6704,-0.2441,2.6505,9.8454,-4.5764,1.8053,-20.7640,10.2993,7.2333,-30.1298
6712,-0.1988,2.3883,9.9267,-4.3271,0.3250,-21.1086,10.5814,7.1501,-30.2383
6720,-0.1696,2.0658,9.9355,-4.5686,-0.8105,-20.9581,10.8590,7.0673,-30.3439
6728,0.0444,1.7508,9.9713,-5.2022,-1.0191,-20.7342,11.1915,6.9591,-30.4165
6736,0.1292,1.3327,9.9148,-4.9282,-0.3386,-20.3921,11.5188,6.8515,-30.4866
6744,0.2756,0.8842,9.8464,-4.2581,-1.9171,-18.2490,11.8638,6.7499,-30.5165
6752,0.4742,0.6966,9.8005,-3.9693,0.6613,-14.4530,12.2035,6.6489,-30.5444
6760,0.4657,0.2467,9.7507,-2.3198,0.2923,-12.8950,12.5379,6.5485,-30.5704
6768,0.3920,-0.0966,9.6847,-3.8465,-0.3725,-11.8477,12.8184,6.4600,-30.6084
6776,0.1359,-0.5576,9.6720,-3.5784,0.1251,-9.7130,13.0632,6.3711,-30.6366
6784,0.1414,-0.9447,9.7624,-3.0740,-0.3511,-8.0049,13.3038,6.2827,-30.6630
6792,0.0015,-1.3204,9.7281,-3.5863,0.1296,-6.6062,13.5128,6.1913,-30.6945
6800,-0.0873,-1.8964,9.7895,-3.0042,-0.5681,-4.7060,13.6872,6.0859,-30.7395
6808,-0.1626,-2.4108,10.0018,-1.4690,0.8447,-2.5236,13.8335,5.9726,-30.7843
6816,-0.3141,-2.5983,9.9639,-1.7075,1.2624,-1.5646,13.9546,5.8635,-30.8136
6824,-0.3778,-2.7648,9.9578,-2.2823,0.1871,-0.5489,14.0729,5.7551,-30.8411
6832,-0.3576,-2.8991,9.9632,-1.0506,-0.4891,1.4838,14.1884,5.6475,-30.8670
6840,-0.3521,-2.9141,9.9544,-1.9261,-1.2344,1.0142,14.2626,5.5389,-30.8886
6848,-0.2628,-3.0064,10.0699,-1.5633,-1.6964,0.3519,14.3345,5.4310,-30.9086
6856,-0.3009,-3.0803,10.0683,-2.0483,-2.9116,0.6598,14.3850,5.3313,-30.9112
6864,-0.2083,-3.1186,10.0314,-2.1148,-2.5030,0.9169,14.4335,5.2322,-30.9124
6872,-0.1272,-2.8876,9.8927,-3.0851,-2.5735,0.8508,14.4816,5.1363,-30.9123
6880,-0.1158,-2.7297,9.8546,-2.5570,-2.1024,1.3022,14.5097,5.0451,-30.9108
6888,-0.0299,-2.6277,9.8498,-2.7719,-1.7798,0.8939,14.5401,4.9503,-30.9047
6896,0.0570,-2.3332,9.6514,-3.4388,-2.0660,0.6022,14.5745,4.8536,-30.8892
6904,0.1542,-2.1451,9.8062,-3.4392,-2.4277,-0.7115,14.6072,4.7576,-30.8726
6912,0.1840,-2.2108,9.7140,-4.4795,-1.9095,0.2029,14.6421,4.6605,-30.8426
6920,0.2081,-2.0612,9.7686,-3.6611,-1.5101,0.4587,14.6738,4.5535,-30.8076
6928,0.1872,-2.0242,9.7847,-4.1904,-2.1734,-0.2114,14.7118,4.4618,-30.7580
6936,0.1117,-2.0458,9.6781,-4.3232,-1.5624,-1.3614,14.7482,4.3706,-30.7077
6944,0.0767,-2.1788,9.6824,-4.4556,-1.4448,-1.4372,14.7829,4.2800,-30.6565
6952,0.1225,-2.1252,9.7113,-3.6995,-1.1803,-1.6484,14.8287,4.1748,-30.5807
6960,0.0190,-1.9195,9.4053,-4.5071,-1.5567,-2.4050,14.8727,4.0703,-30.5044
6968,0.1140,-1.8240,9.5239,-4.7888,-1.5807,-2.9711,14.9381,3.9617,-30.4102
6976,0.1147,-1.7831,9.5364,-4.5061,-1.7769,-2.2246,15.0017,3.8539,-30.3157
6984,0.1683,-1.6815,9.4876,-4.3692,-1.3859,-2.6413,15.0736,3.7350,-30.2114
6992,0.2322,-1.6228,9.6052,-4.4675,-1.3640,-2.1038,15.1610,3.6092,-30.0974
7000,0.2094,-1.4075,9.5512,-4.3003,-1.4097,-1.3658,15.2472,3.4697,-29.9685
7008,0.2434,-1.2423,9.5858,-4.3430,-1.5708,0.0199,15.3447,3.3312,-29.8318
7016,0.2032,-1.3606,9.6771,-4.6958,-1.3328,1.3183,15.4401,3.1940,-29.6953
7024,0.1230,-1.4813,9.6104,-4.4679,-0.2199,1.7600,15.5367,3.0370,-29.5410
7032,0.0660,-1.7956,9.5878,-4.1379,0.0844,2.4623,15.6313,2.8815,-29.3869
7040,-0.0572,-2.0640,9.5173,-3.8784,-0.3180,2.7393,15.7317,2.7074,-29.2224
7048,-0.0952,-2.1611,9.4603,-3.2649,-0.2895,4.9108,15.8301,2.5349,-29.0582
7056,-0.1274,-2.4216,9.5235,-2.9982,-0.6729,6.2140,15.9265,2.3641,-28.8943
7064,-0.1902,-2.5717,9.6263,-2.5912,-0.3941,7.9908,16.0280,2.1743,-28.7148
7072,-0.3072,-2.8865,9.6801,-2.5007,-0.1863,10.1166,16.1275,1.9864,-28.5359
7080,-0.3056,-3.1864,9.7101,-2.5634,-0.0862,12.4775,16.2251,1.7904,-28.3446
7088,-0.2102,-3.2319,9.7404,-2.7754,-0.0918,14.9537,16.3208,1.5964,-28.1539
7096,-0.0944,-3.1063,9.6900,-2.7755,0.0549,16.9271,16.4042,1.3960,-27.9684
7104,0.0041,-3.2168,9.7437,-2.7462,0.1284,18.0701,16.4942,1.1946,-27.7790
7112,0.1283,-3.1678,9.7458,-2.5822,0.1748,19.0111,16.5786,0.9952,-27.5866
7120,0.1582,-3.2496,9.7509,-2.4067,0.2324,19.1643,16.6644,0.7887,-27.3919
7128,-0.0320,-4.0165,9.6584,-2.2096,0.1462,18.6789,16.7485,0.5843,-27.1979
7136,-0.0680,-4.1602,9.6869,-2.2504,0.1438,18.2867,16.8279,0.3871,-26.9951
7144,0.0093,-3.9909,9.7080,-2.1961,0.1521,18.5782,16.9058,0.1919,-26.7931
7152,0.5999,-4.0628,9.6780,-2.1814,0.0534,19.5984,16.9829,-0.0044,-26.5949
7160,1.0227,-3.9538,9.7014,-1.9995,-0.1343,22.0006,17.0584,-0.1989,-26.3975
7168,1.4594,-4.0310,9.7016,-2.2708,-0.1138,24.3377,17.1324,-0.3914,-26.2009
7176,2.1589,-4.1014,10.1254,-2.4956,-0.4808,26.6419,17.1983,-0.5799,-26.0140
7184,2.8406,-4.1778,10.0875,-2.3079,-0.2958,28.2401,17.2533,-0.7556,-25.8292
7192,3.8465,-4.1535,9.9868,-2.1497,-0.6816,29.8030,17.2917,-0.9195,-25.6408
7200,4.9894,-4.0610,9.9211,-2.7265,-1.5518,30.6363,17.3195,-1.0752,-25.4633
7208,6.2122,-3.9781,10.0507,-2.0060,-0.7387,31.4757,17.3463,-1.2294,-25.2865
7216,7.2958,-3.4686,10.0099,-2.6397,0.5589,30.8119,17.3532,-1.3721,-25.1234
7224,8.5261,-2.7521,10.1666,-2.8457,0.1038,31.5903,17.3383,-1.5082,-24.9666
7232,8.4704,-0.0325,10.4250,-4.8667,0.2365,26.8762,17.3056,-1.6323,-24.8124
7240,9.3921,1.7178,11.4983,-14.1191,-0.2552,13.4724,17.2514,-1.7544,-24.6667
7248,11.7220,-0.3352,9.4222,-12.1698,-0.6614,3.8253,17.1969,-1.8752,-24.5214
7256,11.1046,2.1486,10.6570,-11.8390,-0.3565,-3.5225,17.1420,-1.9949,-24.3766
7264,12.8211,0.2232,9.8133,-9.7174,0.2924,-8.1037,17.0440,-2.1084,-24.2315
7272,14.7724,-0.4472,8.9406,-2.3873,-0.2178,-11.0313,16.9460,-2.2207,-24.0869
7280,10.9191,-3.5696,9.6855,-2.2017,-0.8043,-16.8494,16.8480,-2.3319,-23.9427
7288,11.3200,-4.6572,9.6353,-0.9068,1.7735,-13.7813,16.7407,-2.4173,-23.8229
7296,10.6916,-4.6871,9.2583,-0.7433,2.4839,-10.9726,16.6349,-2.4969,-23.6817
7304,10.4582,-2.4526,8.8888,-2.9228,3.0325,-13.6627,16.5150,-2.5631,-23.5395
7312,11.9251,1.3567,9.2264,-1.5885,2.0132,-20.3738,16.3750,-2.6207,-23.3901
7320,10.3942,1.2485,9.2249,-0.9018,-0.3375,-36.5112,16.2353,-2.6777,-23.2411
7328,7.8237,-1.1488,9.1269,-0.6691,-3.2814,-45.7989,16.0931,-2.7215,-23.0823
7336,4.8637,-3.3522,9.1403,-0.8146,-0.5340,-52.8725,15.9421,-2.7626,-22.9296
7344,1.6072,-4.6850,8.8277,-0.5591,-0.9760,-52.3249,15.7915,-2.8031,-22.7774
7352,-1.3053,-5.2361,8.6409,-0.3681,-1.3400,-51.9959,15.6378,-2.8375,-22.6258
7360,-4.2947,-4.9663,8.3949,-3.8894,-1.3707,-51.4813,15.4845,-2.8715,-22.4747
7368,-6.8722,-4.6452,8.3905,-3.0861,-1.5655,-52.9679,15.3316,-2.9049,-22.3242
7376,-8.7923,-4.2982,8.5746,-2.4032,-0.9651,-52.5201,15.1716,-2.9268,-22.1762
7384,-9.9959,-4.0124,8.6528,-1.5156,-1.3482,-50.2653,15.0120,-2.9484,-22.0288
7392,-10.7433,-3.5047,8.8461,-1.3867,-1.5146,-48.3517,14.8447,-2.9613,-21.8751
7400,-10.9884,-3.0111,8.8940,-2.1942,-0.1938,-47.1005,14.6778,-2.9739,-21.7219
7408,-10.9559,-2.6455,9.0047,-2.5903,-0.6454,-45.3360,14.5169,-2.9889,-21.5720
7416,-10.8673,-2.4204,9.0798,-2.3345,-0.5492,-42.8407,14.3565,-3.0069,-21.4159
7424,-10.5275,-2.1593,9.1437,-2.3218,-0.5479,-40.9665,14.1965,-3.0178,-21.2604
7432,-9.5277,-1.9608,9.1810,-2.2297,-0.4293,-39.1423,14.0404,-3.0264,-21.1122
7440,-8.6294,-1.7744,9.2480,-2.0510,-0.3025,-37.3472,13.8847,-3.0346,-20.9645
7448,-7.8056,-1.5952,9.3141,-1.9707,-0.3200,-35.6359,13.7288,-3.0506,-20.8167
7456,-7.0579,-1.4513,9.3644,-1.9153,-0.4114,-34.0342,13.5734,-3.0663,-20.6694
7464,-6.4509,-1.1986,9.4085,-1.8463,-0.4694,-31.4945,13.4137,-3.0796,-20.5207
7472,-5.6991,-1.1603,9.4825,-1.7937,-0.5196,-27.7805,13.2545,-3.0926,-20.3725
7480,-5.1153,-1.1010,9.5473,-1.7460,-0.5409,-23.9063,13.0958,-3.1053,-20.2249
7488,-4.5775,-1.0237,9.5867,-1.7457,-0.5240,-20.3349,12.9415,-3.1151,-20.0758
7496,-4.0703,-0.9570,9.5951,-1.7268,-0.4624,-17.0050,12.7804,-3.1258,-19.9279
7504,-3.5804,-0.9230,9.6141,-1.6741,-0.4329,-13.6607,12.6205,-3.1337,-19.7813
7512,-3.1203,-0.8212,9.6185,-1.6450,-0.5487,-10.1400,12.4611,-3.1413,-19.6352
7520,-2.8096,-0.7568,9.6275,-1.5265,-0.5260,-6.6400,12.2983,-3.1545,-19.4903
7528,-2.5248,-0.6799,9.6183,-1.5145,-0.4484,-3.4957,12.1366,-3.1707,-19.3472
7536,-2.2781,-0.6126,9.6333,-1.5670,-0.4542,-1.1155,11.9741,-3.1807,-19.2047
7544,-2.1850,-0.6187,9.6418,-1.5799,-0.3157,0.7232,11.8141,-3.1879,-19.0613
7552,-2.1191,-0.5700,9.6249,-1.4723,-0.3139,1.7296,11.6546,-3.1947,-18.9186
7560,-1.9916,-0.5318,9.6187,-1.3720,-0.4029,2.1746,11.4924,-3.2014,-18.7795
7568,-1.8178,-0.4895,9.6172,-1.2361,-0.4293,2.2348,11.3307,-3.2078,-18.6410
7576,-1.6424,-0.4458,9.6386,-1.1648,-0.3159,2.0524,11.1663,-3.2172,-18.4985
7584,-1.4833,-0.4176,9.6562,-1.1313,-0.4021,2.0593,11.0025,-3.2263,-18.3565
7592,-1.3420,-0.3725,9.6725,-1.0993,-0.4099,2.0259,10.8392,-3.2352,-18.2150
7600,-1.2186,-0.3349,9.6768,-0.9380,-0.4467,2.0233,10.6823,-3.2368,-18.0766
7608,-1.1062,-0.3241,9.6825,-0.8424,-0.5219,1.9354,10.5188,-3.2420,-17.9426
7616,-1.0153,-0.2574,9.6923,-0.7857,-0.5831,2.1768,10.3558,-3.2419,-17.8071
7624,-0.9171,-0.2143,9.7152,-0.4941,-0.5936,2.5916,10.1934,-3.2416,-17.6722
7632,-0.8165,-0.2218,9.7150,-0.3806,-0.5637,2.7642,10.0316,-3.2462,-17.5364
7640,-0.7363,-0.1854,9.7221,-0.3627,-0.5564,2.6600,9.8716,-3.2557,-17.4012
7648,-0.7148,-0.4867,9.7682,-0.1189,-0.6401,2.4616,9.7103,-3.2637,-17.2702
7656,-0.6421,-0.3767,9.7625,0.0075,-0.6668,2.4400,9.5495,-3.2715,-17.1397
7664,-0.5717,-0.2968,9.7500,-0.5489,-0.6204,2.3206,9.3892,-3.2791,-17.0097
7672,-0.5175,-0.4026,9.7010,-0.8330,-0.7226,2.2731,9.2308,-3.2865,-16.8802
7680,-0.4622,-0.3526,9.7372,-0.6727,-0.6204,2.1637,9.0730,-3.2936,-16.7511
7688,-0.4244,-0.3510,9.7417,-0.6207,-0.7306,2.1470,8.9125,-3.2943,-16.6162
7696,-0.3820,-0.3114,9.7358,-0.5923,-0.7907,2.0591,8.7526,-3.2947,-16.4818
7704,-0.3368,-0.2718,9.7482,-0.6239,-0.7121,1.8924,8.5933,-3.2950,-16.3479
7712,-0.3004,-0.2588,9.7522,-0.5900,-0.5944,1.7063,8.4440,-3.2971,-16.2163
7720,-0.2694,-0.2402,9.7521,-0.5790,-0.5511,1.7176,8.2889,-3.2989,-16.0802
7728,-0.2344,-0.2129,9.7643,-0.6058,-0.5470,1.5925,8.1368,-3.2993,-15.9459
7736,-0.2046,-0.1882,9.7635,-0.4981,-0.5831,1.5875,7.9828,-3.2990,-15.8109
7744,-0.1685,-0.1681,9.7747,-0.5390,-0.4497,1.4787,7.8293,-3.2985,-15.6763
7752,-0.1496,-0.1687,9.7665,-0.5196,-0.3887,1.5241,7.6826,-3.3059,-15.5485
7760,-0.1269,-0.1504,9.7824,-0.4530,-0.3678,1.3727,7.5414,-3.3113,-15.4180
7768,-0.1078,-0.1499,9.7867,-0.4106,-0.3317,1.4360,7.4007,-3.3165,-15.2880
7776,-0.1015,-0.1316,9.7879,-0.4181,-0.3026,1.4245,7.2492,-3.3172,-15.1573
7784,-0.0939,-0.1233,9.7899,-0.4199,-0.2214,1.3176,7.0983,-3.3178,-15.0270
7792,-0.0838,-0.1117,9.7917,-0.3896,-0.3171,1.2099,6.9480,-3.3182,-14.8972
7800,-0.0738,-0.0994,9.7811,-0.3660,-0.3766,1.0750,6.8031,-3.3215,-14.7649
7808,-0.0698,-0.0836,9.7883,-0.3461,-0.4015,1.1273,6.6568,-3.3247,-14.6391
7816,-0.0698,-0.0781,9.7770,-0.3591,-0.3640,1.0307,6.5111,-3.3278,-14.5139
7824,-0.0615,-0.0726,9.7819,-0.3475,-0.3654,1.0662,6.3622,-3.3312,-14.3878
7832,-0.0541,-0.0676,9.7835,-0.2991,-0.3295,1.0843,6.2169,-3.3297,-14.2641
7840,-0.0506,-0.0590,9.7896,-0.2261,-0.2818,0.9948,6.0678,-3.3268,-14.1347
7848,-0.0442,-0.0621,9.7960,-0.1723,-0.3161,0.8613,5.9229,-3.3274,-14.0113
7856,-0.0357,-0.0459,9.8008,-0.1289,-0.3783,0.8696,5.7785,-3.3279,-13.8883
7864,-0.0198,-0.0443,9.7975,-0.1567,-0.4485,0.7443,5.6364,-3.3338,-13.7664
7872,-0.0113,-0.0466,9.7926,-0.1139,-0.5156,0.7417,5.4937,-3.3255,-13.6461
7880,-0.0132,-0.0509,9.7933,-0.0624,-0.4171,0.7019,5.3514,-3.3172,-13.5263
7888,-0.0022,-0.0489,9.7861,0.0136,-0.4055,0.6639,5.2139,-3.3214,-13.4069
7896,-0.0177,-0.0567,9.7860,0.0329,-0.3252,0.6302,5.0768,-3.3256,-13.2880
7904,-0.0126,-0.0610,9.7841,0.0433,-0.3497,0.6646,4.9402,-3.3296,-13.1695
7912,-0.0149,-0.0603,9.7855,-0.0187,-0.2451,0.6255,4.8005,-3.3232,-13.0508
